submission_id,QUD,RT,age,comments,education,endTime,experiment_id,gender,languages,option1,option2,picture1,picture2,predicate,question,response,scenario,sentence_frame,startDate,startTime,timeSpent,trial_name,trial_number
1919,"This is what Pip tells Jim:<br /><br /><span style='font-size:150%'><strong>""The boxes were big.""</strong></span>",6150,42,,Higher degree,1595859519702,166,female,,collective,distributive,images/fiveSmallred_300.jpg,images/twoBigblue_300.jpg,big,To which boxes is Pip referring to?,distributive,inspect,bare,Mon Jul 27 2020 16:16:45 GMT+0200 (Central European Summer Time),1595859405850,1.8975333333333333,image_selection_pip,1
1919,"This is what Pip tells Jim:<br /><br /><span style='font-size:150%'><strong>""The boxes together were tall.""</strong></span>",4159,42,,Higher degree,1595859519702,166,female,,collective,distributive,images/fiveSmallred_300.jpg,images/twoBigblue_300.jpg,tall,To which boxes is Pip referring to?,collective,inspect,together,Mon Jul 27 2020 16:16:45 GMT+0200 (Central European Summer Time),1595859405850,1.8975333333333333,image_selection_pip,2
1919,"This is what Pip tells Jim:<br /><br /><span style='font-size:150%'><strong>""The boxes each were tall.""</strong></span>",4597,42,,Higher degree,1595859519702,166,female,,collective,distributive,images/fiveSmallred_300.jpg,images/twoBigblue_300.jpg,tall,To which boxes is Pip referring to?,distributive,inspect,each,Mon Jul 27 2020 16:16:45 GMT+0200 (Central European Summer Time),1595859405850,1.8975333333333333,image_selection_pip,3
1919,"This is what Pip tells Jim:<br /><br /><span style='font-size:150%'><strong>""The boxes each were heavy.""</strong></span>",10756,42,,Higher degree,1595859519702,166,female,,distributive,collective,images/twoBigblue_300.jpg,images/fiveSmallred_300.jpg,heavy,To which boxes is Pip referring to?,distributive,inspect,each,Mon Jul 27 2020 16:16:45 GMT+0200 (Central European Summer Time),1595859405850,1.8975333333333333,image_selection_pip,4
1919,"This is what Pip tells Jim:<br /><br /><span style='font-size:150%'><strong>""The boxes together were big.""</strong></span>",6622,42,,Higher degree,1595859519702,166,female,,collective,distributive,images/fiveSmallred_300.jpg,images/twoBigblue_300.jpg,big,To which boxes is Pip referring to?,distributive,inspect,together,Mon Jul 27 2020 16:16:45 GMT+0200 (Central European Summer Time),1595859405850,1.8975333333333333,image_selection_pip,5
1919,"This is what Pip tells Jim:<br /><br /><span style='font-size:150%'><strong>""The boxes each were big.""</strong></span>",6034,42,,Higher degree,1595859519702,166,female,,collective,distributive,images/fiveSmallred_300.jpg,images/twoBigblue_300.jpg,big,To which boxes is Pip referring to?,distributive,inspect,each,Mon Jul 27 2020 16:16:45 GMT+0200 (Central European Summer Time),1595859405850,1.8975333333333333,image_selection_pip,6
1919,"This is what Pip tells Jim:<br /><br /><span style='font-size:150%'><strong>""The boxes together were heavy.""</strong></span>",3188,42,,Higher degree,1595859519702,166,female,,distributive,collective,images/twoBigblue_300.jpg,images/fiveSmallred_300.jpg,heavy,To which boxes is Pip referring to?,collective,inspect,together,Mon Jul 27 2020 16:16:45 GMT+0200 (Central European Summer Time),1595859405850,1.8975333333333333,image_selection_pip,7
1919,"This is what Pip tells Jim:<br /><br /><span style='font-size:150%'><strong>""The boxes were tall.""</strong></span>",2549,42,,Higher degree,1595859519702,166,female,,collective,distributive,images/fiveSmallred_300.jpg,images/twoBigblue_300.jpg,tall,To which boxes is Pip referring to?,collective,inspect,bare,Mon Jul 27 2020 16:16:45 GMT+0200 (Central European Summer Time),1595859405850,1.8975333333333333,image_selection_pip,8
1919,"This is what Pip tells Jim:<br /><br /><span style='font-size:150%'><strong>""The boxes were heavy.""</strong></span>",2918,42,,Higher degree,1595859519702,166,female,,distributive,collective,images/twoBigblue_300.jpg,images/fiveSmallred_300.jpg,heavy,To which boxes is Pip referring to?,collective,inspect,bare,Mon Jul 27 2020 16:16:45 GMT+0200 (Central European Summer Time),1595859405850,1.8975333333333333,image_selection_pip,9
1915,"This is what Pip tells Jim:<br /><br /><span style='font-size:150%'><strong>""The boxes together were heavy.""</strong></span>",12716,24,,University degree (Bachelor),1595855019161,166,male,Danish,distributive,collective,images/twoBigblue_300.jpg,images/fiveSmallred_300.jpg,heavy,To which boxes is Pip referring to?,collective,move,together,Mon Jul 27 2020 14:45:33 GMT+0200 (Central European Summer Time),1595853933546,18.093583333333335,image_selection_pip,1
1915,"This is what Pip tells Jim:<br /><br /><span style='font-size:150%'><strong>""The boxes were heavy.""</strong></span>",4190,24,,University degree (Bachelor),1595855019161,166,male,Danish,distributive,collective,images/twoBigblue_300.jpg,images/fiveSmallred_300.jpg,heavy,To which boxes is Pip referring to?,distributive,move,bare,Mon Jul 27 2020 14:45:33 GMT+0200 (Central European Summer Time),1595853933546,18.093583333333335,image_selection_pip,2
1915,"This is what Pip tells Jim:<br /><br /><span style='font-size:150%'><strong>""The boxes each were tall.""</strong></span>",8190,24,,University degree (Bachelor),1595855019161,166,male,Danish,collective,distributive,images/fiveSmallred_300.jpg,images/twoBigblue_300.jpg,tall,To which boxes is Pip referring to?,distributive,move,each,Mon Jul 27 2020 14:45:33 GMT+0200 (Central European Summer Time),1595853933546,18.093583333333335,image_selection_pip,3
1915,"This is what Pip tells Jim:<br /><br /><span style='font-size:150%'><strong>""The boxes each were heavy.""</strong></span>",3178,24,,University degree (Bachelor),1595855019161,166,male,Danish,distributive,collective,images/twoBigblue_300.jpg,images/fiveSmallred_300.jpg,heavy,To which boxes is Pip referring to?,distributive,move,each,Mon Jul 27 2020 14:45:33 GMT+0200 (Central European Summer Time),1595853933546,18.093583333333335,image_selection_pip,4
1915,"This is what Pip tells Jim:<br /><br /><span style='font-size:150%'><strong>""The boxes each were big.""</strong></span>",4660,24,,University degree (Bachelor),1595855019161,166,male,Danish,collective,distributive,images/fiveSmallred_300.jpg,images/twoBigblue_300.jpg,big,To which boxes is Pip referring to?,distributive,move,each,Mon Jul 27 2020 14:45:33 GMT+0200 (Central European Summer Time),1595853933546,18.093583333333335,image_selection_pip,5
1915,"This is what Pip tells Jim:<br /><br /><span style='font-size:150%'><strong>""The boxes together were big.""</strong></span>",2582,24,,University degree (Bachelor),1595855019161,166,male,Danish,collective,distributive,images/fiveSmallred_300.jpg,images/twoBigblue_300.jpg,big,To which boxes is Pip referring to?,collective,move,together,Mon Jul 27 2020 14:45:33 GMT+0200 (Central European Summer Time),1595853933546,18.093583333333335,image_selection_pip,6
1915,"This is what Pip tells Jim:<br /><br /><span style='font-size:150%'><strong>""The boxes together were tall.""</strong></span>",3298,24,,University degree (Bachelor),1595855019161,166,male,Danish,collective,distributive,images/fiveSmallred_300.jpg,images/twoBigblue_300.jpg,tall,To which boxes is Pip referring to?,collective,move,together,Mon Jul 27 2020 14:45:33 GMT+0200 (Central European Summer Time),1595853933546,18.093583333333335,image_selection_pip,7
1915,"This is what Pip tells Jim:<br /><br /><span style='font-size:150%'><strong>""The boxes were big.""</strong></span>",2381,24,,University degree (Bachelor),1595855019161,166,male,Danish,collective,distributive,images/fiveSmallred_300.jpg,images/twoBigblue_300.jpg,big,To which boxes is Pip referring to?,distributive,move,bare,Mon Jul 27 2020 14:45:33 GMT+0200 (Central European Summer Time),1595853933546,18.093583333333335,image_selection_pip,8
1915,"This is what Pip tells Jim:<br /><br /><span style='font-size:150%'><strong>""The boxes were tall.""</strong></span>",2814,24,,University degree (Bachelor),1595855019161,166,male,Danish,collective,distributive,images/fiveSmallred_300.jpg,images/twoBigblue_300.jpg,tall,To which boxes is Pip referring to?,distributive,move,bare,Mon Jul 27 2020 14:45:33 GMT+0200 (Central European Summer Time),1595853933546,18.093583333333335,image_selection_pip,9
1905,"This is what Pip tells Jim:<br /><br /><span style='font-size:150%'><strong>""The boxes together were tall.""</strong></span>",10278,34,,University degree (Bachelor),1595847934742,166,male,German,collective,distributive,images/fiveSmallred_300.jpg,images/twoBigblue_300.jpg,tall,To which boxes is Pip referring to?,collective,inspect,together,Mon Jul 27 2020 13:03:50 GMT+0200 (Mitteleuropäische Sommerzeit),1595847830969,1.72955,image_selection_pip,1
1905,"This is what Pip tells Jim:<br /><br /><span style='font-size:150%'><strong>""The boxes together were heavy.""</strong></span>",6953,34,,University degree (Bachelor),1595847934742,166,male,German,distributive,collective,images/twoBigblue_300.jpg,images/fiveSmallred_300.jpg,heavy,To which boxes is Pip referring to?,collective,inspect,together,Mon Jul 27 2020 13:03:50 GMT+0200 (Mitteleuropäische Sommerzeit),1595847830969,1.72955,image_selection_pip,2
1905,"This is what Pip tells Jim:<br /><br /><span style='font-size:150%'><strong>""The boxes each were heavy.""</strong></span>",3341,34,,University degree (Bachelor),1595847934742,166,male,German,distributive,collective,images/twoBigblue_300.jpg,images/fiveSmallred_300.jpg,heavy,To which boxes is Pip referring to?,distributive,inspect,each,Mon Jul 27 2020 13:03:50 GMT+0200 (Mitteleuropäische Sommerzeit),1595847830969,1.72955,image_selection_pip,3
1905,"This is what Pip tells Jim:<br /><br /><span style='font-size:150%'><strong>""The boxes each were tall.""</strong></span>",3112,34,,University degree (Bachelor),1595847934742,166,male,German,collective,distributive,images/fiveSmallred_300.jpg,images/twoBigblue_300.jpg,tall,To which boxes is Pip referring to?,distributive,inspect,each,Mon Jul 27 2020 13:03:50 GMT+0200 (Mitteleuropäische Sommerzeit),1595847830969,1.72955,image_selection_pip,4
1905,"This is what Pip tells Jim:<br /><br /><span style='font-size:150%'><strong>""The boxes each were big.""</strong></span>",2112,34,,University degree (Bachelor),1595847934742,166,male,German,collective,distributive,images/fiveSmallred_300.jpg,images/twoBigblue_300.jpg,big,To which boxes is Pip referring to?,distributive,inspect,each,Mon Jul 27 2020 13:03:50 GMT+0200 (Mitteleuropäische Sommerzeit),1595847830969,1.72955,image_selection_pip,5
1905,"This is what Pip tells Jim:<br /><br /><span style='font-size:150%'><strong>""The boxes were heavy.""</strong></span>",8725,34,,University degree (Bachelor),1595847934742,166,male,German,distributive,collective,images/twoBigblue_300.jpg,images/fiveSmallred_300.jpg,heavy,To which boxes is Pip referring to?,distributive,inspect,bare,Mon Jul 27 2020 13:03:50 GMT+0200 (Mitteleuropäische Sommerzeit),1595847830969,1.72955,image_selection_pip,6
1905,"This is what Pip tells Jim:<br /><br /><span style='font-size:150%'><strong>""The boxes were tall.""</strong></span>",2297,34,,University degree (Bachelor),1595847934742,166,male,German,collective,distributive,images/fiveSmallred_300.jpg,images/twoBigblue_300.jpg,tall,To which boxes is Pip referring to?,distributive,inspect,bare,Mon Jul 27 2020 13:03:50 GMT+0200 (Mitteleuropäische Sommerzeit),1595847830969,1.72955,image_selection_pip,7
1905,"This is what Pip tells Jim:<br /><br /><span style='font-size:150%'><strong>""The boxes were big.""</strong></span>",2558,34,,University degree (Bachelor),1595847934742,166,male,German,collective,distributive,images/fiveSmallred_300.jpg,images/twoBigblue_300.jpg,big,To which boxes is Pip referring to?,distributive,inspect,bare,Mon Jul 27 2020 13:03:50 GMT+0200 (Mitteleuropäische Sommerzeit),1595847830969,1.72955,image_selection_pip,8
1905,"This is what Pip tells Jim:<br /><br /><span style='font-size:150%'><strong>""The boxes together were big.""</strong></span>",5910,34,,University degree (Bachelor),1595847934742,166,male,German,collective,distributive,images/fiveSmallred_300.jpg,images/twoBigblue_300.jpg,big,To which boxes is Pip referring to?,distributive,inspect,together,Mon Jul 27 2020 13:03:50 GMT+0200 (Mitteleuropäische Sommerzeit),1595847830969,1.72955,image_selection_pip,9
1896,"This is what Pip tells Jim:<br /><br /><span style='font-size:150%'><strong>""The boxes together were big.""</strong></span>",11012,18,,"Highschool graduate (Abitur, diploma or equivalent)",1595814249529,166,female,English,collective,distributive,images/fiveSmallred_300.jpg,images/twoBigblue_300.jpg,big,To which boxes is Pip referring to?,distributive,inspect,together,Sun Jul 26 2020 21:43:12 GMT-0400 (Eastern Daylight Time),1595814192075,0.9575666666666667,image_selection_pip,1
1896,"This is what Pip tells Jim:<br /><br /><span style='font-size:150%'><strong>""The boxes each were heavy.""</strong></span>",3756,18,,"Highschool graduate (Abitur, diploma or equivalent)",1595814249529,166,female,English,distributive,collective,images/twoBigblue_300.jpg,images/fiveSmallred_300.jpg,heavy,To which boxes is Pip referring to?,distributive,inspect,each,Sun Jul 26 2020 21:43:12 GMT-0400 (Eastern Daylight Time),1595814192075,0.9575666666666667,image_selection_pip,2
1896,"This is what Pip tells Jim:<br /><br /><span style='font-size:150%'><strong>""The boxes each were big.""</strong></span>",1970,18,,"Highschool graduate (Abitur, diploma or equivalent)",1595814249529,166,female,English,collective,distributive,images/fiveSmallred_300.jpg,images/twoBigblue_300.jpg,big,To which boxes is Pip referring to?,distributive,inspect,each,Sun Jul 26 2020 21:43:12 GMT-0400 (Eastern Daylight Time),1595814192075,0.9575666666666667,image_selection_pip,3
1896,"This is what Pip tells Jim:<br /><br /><span style='font-size:150%'><strong>""The boxes were big.""</strong></span>",3062,18,,"Highschool graduate (Abitur, diploma or equivalent)",1595814249529,166,female,English,collective,distributive,images/fiveSmallred_300.jpg,images/twoBigblue_300.jpg,big,To which boxes is Pip referring to?,distributive,inspect,bare,Sun Jul 26 2020 21:43:12 GMT-0400 (Eastern Daylight Time),1595814192075,0.9575666666666667,image_selection_pip,4
1896,"This is what Pip tells Jim:<br /><br /><span style='font-size:150%'><strong>""The boxes were heavy.""</strong></span>",3416,18,,"Highschool graduate (Abitur, diploma or equivalent)",1595814249529,166,female,English,distributive,collective,images/twoBigblue_300.jpg,images/fiveSmallred_300.jpg,heavy,To which boxes is Pip referring to?,collective,inspect,bare,Sun Jul 26 2020 21:43:12 GMT-0400 (Eastern Daylight Time),1595814192075,0.9575666666666667,image_selection_pip,5
1896,"This is what Pip tells Jim:<br /><br /><span style='font-size:150%'><strong>""The boxes together were heavy.""</strong></span>",1696,18,,"Highschool graduate (Abitur, diploma or equivalent)",1595814249529,166,female,English,distributive,collective,images/twoBigblue_300.jpg,images/fiveSmallred_300.jpg,heavy,To which boxes is Pip referring to?,collective,inspect,together,Sun Jul 26 2020 21:43:12 GMT-0400 (Eastern Daylight Time),1595814192075,0.9575666666666667,image_selection_pip,6
1896,"This is what Pip tells Jim:<br /><br /><span style='font-size:150%'><strong>""The boxes were tall.""</strong></span>",1349,18,,"Highschool graduate (Abitur, diploma or equivalent)",1595814249529,166,female,English,collective,distributive,images/fiveSmallred_300.jpg,images/twoBigblue_300.jpg,tall,To which boxes is Pip referring to?,distributive,inspect,bare,Sun Jul 26 2020 21:43:12 GMT-0400 (Eastern Daylight Time),1595814192075,0.9575666666666667,image_selection_pip,7
1896,"This is what Pip tells Jim:<br /><br /><span style='font-size:150%'><strong>""The boxes each were tall.""</strong></span>",3339,18,,"Highschool graduate (Abitur, diploma or equivalent)",1595814249529,166,female,English,collective,distributive,images/fiveSmallred_300.jpg,images/twoBigblue_300.jpg,tall,To which boxes is Pip referring to?,distributive,inspect,each,Sun Jul 26 2020 21:43:12 GMT-0400 (Eastern Daylight Time),1595814192075,0.9575666666666667,image_selection_pip,8
1896,"This is what Pip tells Jim:<br /><br /><span style='font-size:150%'><strong>""The boxes together were tall.""</strong></span>",1733,18,,"Highschool graduate (Abitur, diploma or equivalent)",1595814249529,166,female,English,collective,distributive,images/fiveSmallred_300.jpg,images/twoBigblue_300.jpg,tall,To which boxes is Pip referring to?,collective,inspect,together,Sun Jul 26 2020 21:43:12 GMT-0400 (Eastern Daylight Time),1595814192075,0.9575666666666667,image_selection_pip,9
1892,"This is what Pip tells Jim:<br /><br /><span style='font-size:150%'><strong>""The boxes were big.""</strong></span>",23405,22,At first I didn't notice that there were only two blue boxes - the lines could have been thicker.,University degree (Bachelor),1595800352905,166,female,English,collective,distributive,images/fiveSmallred_300.jpg,images/twoBigblue_300.jpg,big,To which boxes is Pip referring to?,collective,inspect,bare,Sun Jul 26 2020 17:49:41 GMT-0400 (Eastern Daylight Time),1595800181431,2.8579,image_selection_pip,1
1892,"This is what Pip tells Jim:<br /><br /><span style='font-size:150%'><strong>""The boxes together were big.""</strong></span>",1988,22,At first I didn't notice that there were only two blue boxes - the lines could have been thicker.,University degree (Bachelor),1595800352905,166,female,English,collective,distributive,images/fiveSmallred_300.jpg,images/twoBigblue_300.jpg,big,To which boxes is Pip referring to?,collective,inspect,together,Sun Jul 26 2020 17:49:41 GMT-0400 (Eastern Daylight Time),1595800181431,2.8579,image_selection_pip,2
1892,"This is what Pip tells Jim:<br /><br /><span style='font-size:150%'><strong>""The boxes together were heavy.""</strong></span>",3978,22,At first I didn't notice that there were only two blue boxes - the lines could have been thicker.,University degree (Bachelor),1595800352905,166,female,English,distributive,collective,images/twoBigblue_300.jpg,images/fiveSmallred_300.jpg,heavy,To which boxes is Pip referring to?,collective,inspect,together,Sun Jul 26 2020 17:49:41 GMT-0400 (Eastern Daylight Time),1595800181431,2.8579,image_selection_pip,3
1892,"This is what Pip tells Jim:<br /><br /><span style='font-size:150%'><strong>""The boxes each were tall.""</strong></span>",8411,22,At first I didn't notice that there were only two blue boxes - the lines could have been thicker.,University degree (Bachelor),1595800352905,166,female,English,collective,distributive,images/fiveSmallred_300.jpg,images/twoBigblue_300.jpg,tall,To which boxes is Pip referring to?,distributive,inspect,each,Sun Jul 26 2020 17:49:41 GMT-0400 (Eastern Daylight Time),1595800181431,2.8579,image_selection_pip,4
1892,"This is what Pip tells Jim:<br /><br /><span style='font-size:150%'><strong>""The boxes together were tall.""</strong></span>",2784,22,At first I didn't notice that there were only two blue boxes - the lines could have been thicker.,University degree (Bachelor),1595800352905,166,female,English,collective,distributive,images/fiveSmallred_300.jpg,images/twoBigblue_300.jpg,tall,To which boxes is Pip referring to?,collective,inspect,together,Sun Jul 26 2020 17:49:41 GMT-0400 (Eastern Daylight Time),1595800181431,2.8579,image_selection_pip,5
1892,"This is what Pip tells Jim:<br /><br /><span style='font-size:150%'><strong>""The boxes each were big.""</strong></span>",7751,22,At first I didn't notice that there were only two blue boxes - the lines could have been thicker.,University degree (Bachelor),1595800352905,166,female,English,collective,distributive,images/fiveSmallred_300.jpg,images/twoBigblue_300.jpg,big,To which boxes is Pip referring to?,distributive,inspect,each,Sun Jul 26 2020 17:49:41 GMT-0400 (Eastern Daylight Time),1595800181431,2.8579,image_selection_pip,6
1892,"This is what Pip tells Jim:<br /><br /><span style='font-size:150%'><strong>""The boxes were tall.""</strong></span>",3532,22,At first I didn't notice that there were only two blue boxes - the lines could have been thicker.,University degree (Bachelor),1595800352905,166,female,English,collective,distributive,images/fiveSmallred_300.jpg,images/twoBigblue_300.jpg,tall,To which boxes is Pip referring to?,distributive,inspect,bare,Sun Jul 26 2020 17:49:41 GMT-0400 (Eastern Daylight Time),1595800181431,2.8579,image_selection_pip,7
1892,"This is what Pip tells Jim:<br /><br /><span style='font-size:150%'><strong>""The boxes each were heavy.""</strong></span>",2646,22,At first I didn't notice that there were only two blue boxes - the lines could have been thicker.,University degree (Bachelor),1595800352905,166,female,English,distributive,collective,images/twoBigblue_300.jpg,images/fiveSmallred_300.jpg,heavy,To which boxes is Pip referring to?,distributive,inspect,each,Sun Jul 26 2020 17:49:41 GMT-0400 (Eastern Daylight Time),1595800181431,2.8579,image_selection_pip,8
1892,"This is what Pip tells Jim:<br /><br /><span style='font-size:150%'><strong>""The boxes were heavy.""</strong></span>",1691,22,At first I didn't notice that there were only two blue boxes - the lines could have been thicker.,University degree (Bachelor),1595800352905,166,female,English,distributive,collective,images/twoBigblue_300.jpg,images/fiveSmallred_300.jpg,heavy,To which boxes is Pip referring to?,distributive,inspect,bare,Sun Jul 26 2020 17:49:41 GMT-0400 (Eastern Daylight Time),1595800181431,2.8579,image_selection_pip,9
1888,"This is what Pip tells Jim:<br /><br /><span style='font-size:150%'><strong>""The boxes together were tall.""</strong></span>",14492,27,,University degree (Bachelor),1595795277732,166,male,English,collective,distributive,images/fiveSmallred_300.jpg,images/twoBigblue_300.jpg,tall,To which boxes is Pip referring to?,distributive,move,together,Sat Jul 25 2020 21:34:21 GMT+0100 (British Summer Time),1595709261733,1433.5999833333333,image_selection_pip,1
1888,"This is what Pip tells Jim:<br /><br /><span style='font-size:150%'><strong>""The boxes together were big.""</strong></span>",7860,27,,University degree (Bachelor),1595795277732,166,male,English,collective,distributive,images/fiveSmallred_300.jpg,images/twoBigblue_300.jpg,big,To which boxes is Pip referring to?,collective,move,together,Sat Jul 25 2020 21:34:21 GMT+0100 (British Summer Time),1595709261733,1433.5999833333333,image_selection_pip,2
1888,"This is what Pip tells Jim:<br /><br /><span style='font-size:150%'><strong>""The boxes were heavy.""</strong></span>",37235,27,,University degree (Bachelor),1595795277732,166,male,English,distributive,collective,images/twoBigblue_300.jpg,images/fiveSmallred_300.jpg,heavy,To which boxes is Pip referring to?,distributive,move,bare,Sat Jul 25 2020 21:34:21 GMT+0100 (British Summer Time),1595709261733,1433.5999833333333,image_selection_pip,3
1888,"This is what Pip tells Jim:<br /><br /><span style='font-size:150%'><strong>""The boxes were big.""</strong></span>",5123,27,,University degree (Bachelor),1595795277732,166,male,English,collective,distributive,images/fiveSmallred_300.jpg,images/twoBigblue_300.jpg,big,To which boxes is Pip referring to?,distributive,move,bare,Sat Jul 25 2020 21:34:21 GMT+0100 (British Summer Time),1595709261733,1433.5999833333333,image_selection_pip,4
1888,"This is what Pip tells Jim:<br /><br /><span style='font-size:150%'><strong>""The boxes each were big.""</strong></span>",4381,27,,University degree (Bachelor),1595795277732,166,male,English,collective,distributive,images/fiveSmallred_300.jpg,images/twoBigblue_300.jpg,big,To which boxes is Pip referring to?,distributive,move,each,Sat Jul 25 2020 21:34:21 GMT+0100 (British Summer Time),1595709261733,1433.5999833333333,image_selection_pip,5
1888,"This is what Pip tells Jim:<br /><br /><span style='font-size:150%'><strong>""The boxes were tall.""</strong></span>",12299,27,,University degree (Bachelor),1595795277732,166,male,English,collective,distributive,images/fiveSmallred_300.jpg,images/twoBigblue_300.jpg,tall,To which boxes is Pip referring to?,collective,move,bare,Sat Jul 25 2020 21:34:21 GMT+0100 (British Summer Time),1595709261733,1433.5999833333333,image_selection_pip,6
1888,"This is what Pip tells Jim:<br /><br /><span style='font-size:150%'><strong>""The boxes each were tall.""</strong></span>",1444,27,,University degree (Bachelor),1595795277732,166,male,English,collective,distributive,images/fiveSmallred_300.jpg,images/twoBigblue_300.jpg,tall,To which boxes is Pip referring to?,distributive,move,each,Sat Jul 25 2020 21:34:21 GMT+0100 (British Summer Time),1595709261733,1433.5999833333333,image_selection_pip,7
1888,"This is what Pip tells Jim:<br /><br /><span style='font-size:150%'><strong>""The boxes each were heavy.""</strong></span>",6069,27,,University degree (Bachelor),1595795277732,166,male,English,distributive,collective,images/twoBigblue_300.jpg,images/fiveSmallred_300.jpg,heavy,To which boxes is Pip referring to?,distributive,move,each,Sat Jul 25 2020 21:34:21 GMT+0100 (British Summer Time),1595709261733,1433.5999833333333,image_selection_pip,8
1888,"This is what Pip tells Jim:<br /><br /><span style='font-size:150%'><strong>""The boxes together were heavy.""</strong></span>",2232,27,,University degree (Bachelor),1595795277732,166,male,English,distributive,collective,images/twoBigblue_300.jpg,images/fiveSmallred_300.jpg,heavy,To which boxes is Pip referring to?,collective,move,together,Sat Jul 25 2020 21:34:21 GMT+0100 (British Summer Time),1595709261733,1433.5999833333333,image_selection_pip,9
1885,"This is what Pip tells Jim:<br /><br /><span style='font-size:150%'><strong>""The boxes were big.""</strong></span>",3210,20,,"Highschool graduate (Abitur, diploma or equivalent)",1595794054501,166,female,German,collective,distributive,images/fiveSmallred_300.jpg,images/twoBigblue_300.jpg,big,To which boxes is Pip referring to?,distributive,inspect,bare,Sun Jul 26 2020 22:05:09 GMT+0200 (Mitteleuropäische Sommerzeit),1595793909184,2.42195,image_selection_pip,1
1885,"This is what Pip tells Jim:<br /><br /><span style='font-size:150%'><strong>""The boxes each were tall.""</strong></span>",5500,20,,"Highschool graduate (Abitur, diploma or equivalent)",1595794054501,166,female,German,collective,distributive,images/fiveSmallred_300.jpg,images/twoBigblue_300.jpg,tall,To which boxes is Pip referring to?,distributive,inspect,each,Sun Jul 26 2020 22:05:09 GMT+0200 (Mitteleuropäische Sommerzeit),1595793909184,2.42195,image_selection_pip,2
1885,"This is what Pip tells Jim:<br /><br /><span style='font-size:150%'><strong>""The boxes each were big.""</strong></span>",2894,20,,"Highschool graduate (Abitur, diploma or equivalent)",1595794054501,166,female,German,collective,distributive,images/fiveSmallred_300.jpg,images/twoBigblue_300.jpg,big,To which boxes is Pip referring to?,distributive,inspect,each,Sun Jul 26 2020 22:05:09 GMT+0200 (Mitteleuropäische Sommerzeit),1595793909184,2.42195,image_selection_pip,3
1885,"This is what Pip tells Jim:<br /><br /><span style='font-size:150%'><strong>""The boxes each were heavy.""</strong></span>",8406,20,,"Highschool graduate (Abitur, diploma or equivalent)",1595794054501,166,female,German,distributive,collective,images/twoBigblue_300.jpg,images/fiveSmallred_300.jpg,heavy,To which boxes is Pip referring to?,distributive,inspect,each,Sun Jul 26 2020 22:05:09 GMT+0200 (Mitteleuropäische Sommerzeit),1595793909184,2.42195,image_selection_pip,4
1885,"This is what Pip tells Jim:<br /><br /><span style='font-size:150%'><strong>""The boxes together were heavy.""</strong></span>",2526,20,,"Highschool graduate (Abitur, diploma or equivalent)",1595794054501,166,female,German,distributive,collective,images/twoBigblue_300.jpg,images/fiveSmallred_300.jpg,heavy,To which boxes is Pip referring to?,collective,inspect,together,Sun Jul 26 2020 22:05:09 GMT+0200 (Mitteleuropäische Sommerzeit),1595793909184,2.42195,image_selection_pip,5
1885,"This is what Pip tells Jim:<br /><br /><span style='font-size:150%'><strong>""The boxes together were big.""</strong></span>",3680,20,,"Highschool graduate (Abitur, diploma or equivalent)",1595794054501,166,female,German,collective,distributive,images/fiveSmallred_300.jpg,images/twoBigblue_300.jpg,big,To which boxes is Pip referring to?,collective,inspect,together,Sun Jul 26 2020 22:05:09 GMT+0200 (Mitteleuropäische Sommerzeit),1595793909184,2.42195,image_selection_pip,6
1885,"This is what Pip tells Jim:<br /><br /><span style='font-size:150%'><strong>""The boxes were tall.""</strong></span>",2921,20,,"Highschool graduate (Abitur, diploma or equivalent)",1595794054501,166,female,German,collective,distributive,images/fiveSmallred_300.jpg,images/twoBigblue_300.jpg,tall,To which boxes is Pip referring to?,distributive,inspect,bare,Sun Jul 26 2020 22:05:09 GMT+0200 (Mitteleuropäische Sommerzeit),1595793909184,2.42195,image_selection_pip,7
1885,"This is what Pip tells Jim:<br /><br /><span style='font-size:150%'><strong>""The boxes together were tall.""</strong></span>",2417,20,,"Highschool graduate (Abitur, diploma or equivalent)",1595794054501,166,female,German,collective,distributive,images/fiveSmallred_300.jpg,images/twoBigblue_300.jpg,tall,To which boxes is Pip referring to?,collective,inspect,together,Sun Jul 26 2020 22:05:09 GMT+0200 (Mitteleuropäische Sommerzeit),1595793909184,2.42195,image_selection_pip,8
1885,"This is what Pip tells Jim:<br /><br /><span style='font-size:150%'><strong>""The boxes were heavy.""</strong></span>",2697,20,,"Highschool graduate (Abitur, diploma or equivalent)",1595794054501,166,female,German,distributive,collective,images/twoBigblue_300.jpg,images/fiveSmallred_300.jpg,heavy,To which boxes is Pip referring to?,distributive,inspect,bare,Sun Jul 26 2020 22:05:09 GMT+0200 (Mitteleuropäische Sommerzeit),1595793909184,2.42195,image_selection_pip,9
1880,"This is what Pip tells Jim:<br /><br /><span style='font-size:150%'><strong>""The boxes together were big.""</strong></span>",2923,21,,University degree (Bachelor),1595780308409,166,female,,collective,distributive,images/fiveSmallred_300.jpg,images/twoBigblue_300.jpg,big,To which boxes is Pip referring to?,collective,inspect,together,Sun Jul 26 2020 18:17:31 GMT+0200 (Central European Summer Time),1595780251578,0.9471833333333334,image_selection_pip,1
1880,"This is what Pip tells Jim:<br /><br /><span style='font-size:150%'><strong>""The boxes were tall.""</strong></span>",3959,21,,University degree (Bachelor),1595780308409,166,female,,collective,distributive,images/fiveSmallred_300.jpg,images/twoBigblue_300.jpg,tall,To which boxes is Pip referring to?,collective,inspect,bare,Sun Jul 26 2020 18:17:31 GMT+0200 (Central European Summer Time),1595780251578,0.9471833333333334,image_selection_pip,2
1880,"This is what Pip tells Jim:<br /><br /><span style='font-size:150%'><strong>""The boxes each were big.""</strong></span>",4051,21,,University degree (Bachelor),1595780308409,166,female,,collective,distributive,images/fiveSmallred_300.jpg,images/twoBigblue_300.jpg,big,To which boxes is Pip referring to?,distributive,inspect,each,Sun Jul 26 2020 18:17:31 GMT+0200 (Central European Summer Time),1595780251578,0.9471833333333334,image_selection_pip,3
1880,"This is what Pip tells Jim:<br /><br /><span style='font-size:150%'><strong>""The boxes together were tall.""</strong></span>",3087,21,,University degree (Bachelor),1595780308409,166,female,,collective,distributive,images/fiveSmallred_300.jpg,images/twoBigblue_300.jpg,tall,To which boxes is Pip referring to?,collective,inspect,together,Sun Jul 26 2020 18:17:31 GMT+0200 (Central European Summer Time),1595780251578,0.9471833333333334,image_selection_pip,4
1880,"This is what Pip tells Jim:<br /><br /><span style='font-size:150%'><strong>""The boxes each were heavy.""</strong></span>",4067,21,,University degree (Bachelor),1595780308409,166,female,,distributive,collective,images/twoBigblue_300.jpg,images/fiveSmallred_300.jpg,heavy,To which boxes is Pip referring to?,distributive,inspect,each,Sun Jul 26 2020 18:17:31 GMT+0200 (Central European Summer Time),1595780251578,0.9471833333333334,image_selection_pip,5
1880,"This is what Pip tells Jim:<br /><br /><span style='font-size:150%'><strong>""The boxes were heavy.""</strong></span>",3297,21,,University degree (Bachelor),1595780308409,166,female,,distributive,collective,images/twoBigblue_300.jpg,images/fiveSmallred_300.jpg,heavy,To which boxes is Pip referring to?,collective,inspect,bare,Sun Jul 26 2020 18:17:31 GMT+0200 (Central European Summer Time),1595780251578,0.9471833333333334,image_selection_pip,6
1880,"This is what Pip tells Jim:<br /><br /><span style='font-size:150%'><strong>""The boxes were big.""</strong></span>",2535,21,,University degree (Bachelor),1595780308409,166,female,,collective,distributive,images/fiveSmallred_300.jpg,images/twoBigblue_300.jpg,big,To which boxes is Pip referring to?,distributive,inspect,bare,Sun Jul 26 2020 18:17:31 GMT+0200 (Central European Summer Time),1595780251578,0.9471833333333334,image_selection_pip,7
1880,"This is what Pip tells Jim:<br /><br /><span style='font-size:150%'><strong>""The boxes together were heavy.""</strong></span>",2145,21,,University degree (Bachelor),1595780308409,166,female,,distributive,collective,images/twoBigblue_300.jpg,images/fiveSmallred_300.jpg,heavy,To which boxes is Pip referring to?,collective,inspect,together,Sun Jul 26 2020 18:17:31 GMT+0200 (Central European Summer Time),1595780251578,0.9471833333333334,image_selection_pip,8
1880,"This is what Pip tells Jim:<br /><br /><span style='font-size:150%'><strong>""The boxes each were tall.""</strong></span>",2414,21,,University degree (Bachelor),1595780308409,166,female,,collective,distributive,images/fiveSmallred_300.jpg,images/twoBigblue_300.jpg,tall,To which boxes is Pip referring to?,distributive,inspect,each,Sun Jul 26 2020 18:17:31 GMT+0200 (Central European Summer Time),1595780251578,0.9471833333333334,image_selection_pip,9
1878,"This is what Pip tells Jim:<br /><br /><span style='font-size:150%'><strong>""The boxes were heavy.""</strong></span>",61552,29,,Higher degree,1595776292742,166,male,English,distributive,collective,images/twoBigblue_300.jpg,images/fiveSmallred_300.jpg,heavy,To which boxes is Pip referring to?,distributive,move,bare,Sun Jul 26 2020 10:08:53 GMT-0500 (Central Daylight Time),1595776133232,2.6585,image_selection_pip,1
1878,"This is what Pip tells Jim:<br /><br /><span style='font-size:150%'><strong>""The boxes were tall.""</strong></span>",7612,29,,Higher degree,1595776292742,166,male,English,collective,distributive,images/fiveSmallred_300.jpg,images/twoBigblue_300.jpg,tall,To which boxes is Pip referring to?,distributive,move,bare,Sun Jul 26 2020 10:08:53 GMT-0500 (Central Daylight Time),1595776133232,2.6585,image_selection_pip,2
1878,"This is what Pip tells Jim:<br /><br /><span style='font-size:150%'><strong>""The boxes together were tall.""</strong></span>",2702,29,,Higher degree,1595776292742,166,male,English,collective,distributive,images/fiveSmallred_300.jpg,images/twoBigblue_300.jpg,tall,To which boxes is Pip referring to?,collective,move,together,Sun Jul 26 2020 10:08:53 GMT-0500 (Central Daylight Time),1595776133232,2.6585,image_selection_pip,3
1878,"This is what Pip tells Jim:<br /><br /><span style='font-size:150%'><strong>""The boxes each were big.""</strong></span>",3076,29,,Higher degree,1595776292742,166,male,English,collective,distributive,images/fiveSmallred_300.jpg,images/twoBigblue_300.jpg,big,To which boxes is Pip referring to?,distributive,move,each,Sun Jul 26 2020 10:08:53 GMT-0500 (Central Daylight Time),1595776133232,2.6585,image_selection_pip,4
1878,"This is what Pip tells Jim:<br /><br /><span style='font-size:150%'><strong>""The boxes were big.""</strong></span>",2659,29,,Higher degree,1595776292742,166,male,English,collective,distributive,images/fiveSmallred_300.jpg,images/twoBigblue_300.jpg,big,To which boxes is Pip referring to?,distributive,move,bare,Sun Jul 26 2020 10:08:53 GMT-0500 (Central Daylight Time),1595776133232,2.6585,image_selection_pip,5
1878,"This is what Pip tells Jim:<br /><br /><span style='font-size:150%'><strong>""The boxes each were heavy.""</strong></span>",2959,29,,Higher degree,1595776292742,166,male,English,distributive,collective,images/twoBigblue_300.jpg,images/fiveSmallred_300.jpg,heavy,To which boxes is Pip referring to?,distributive,move,each,Sun Jul 26 2020 10:08:53 GMT-0500 (Central Daylight Time),1595776133232,2.6585,image_selection_pip,6
1878,"This is what Pip tells Jim:<br /><br /><span style='font-size:150%'><strong>""The boxes together were big.""</strong></span>",2816,29,,Higher degree,1595776292742,166,male,English,collective,distributive,images/fiveSmallred_300.jpg,images/twoBigblue_300.jpg,big,To which boxes is Pip referring to?,collective,move,together,Sun Jul 26 2020 10:08:53 GMT-0500 (Central Daylight Time),1595776133232,2.6585,image_selection_pip,7
1878,"This is what Pip tells Jim:<br /><br /><span style='font-size:150%'><strong>""The boxes each were tall.""</strong></span>",2182,29,,Higher degree,1595776292742,166,male,English,collective,distributive,images/fiveSmallred_300.jpg,images/twoBigblue_300.jpg,tall,To which boxes is Pip referring to?,distributive,move,each,Sun Jul 26 2020 10:08:53 GMT-0500 (Central Daylight Time),1595776133232,2.6585,image_selection_pip,8
1878,"This is what Pip tells Jim:<br /><br /><span style='font-size:150%'><strong>""The boxes together were heavy.""</strong></span>",4683,29,,Higher degree,1595776292742,166,male,English,distributive,collective,images/twoBigblue_300.jpg,images/fiveSmallred_300.jpg,heavy,To which boxes is Pip referring to?,collective,move,together,Sun Jul 26 2020 10:08:53 GMT-0500 (Central Daylight Time),1595776133232,2.6585,image_selection_pip,9
1874,"This is what Pip tells Jim:<br /><br /><span style='font-size:150%'><strong>""The boxes together were heavy.""</strong></span>",28706,22,,"Highschool graduate (Abitur, diploma or equivalent)",1595772752974,166,male,"Spanish, German, Catalan",distributive,collective,images/twoBigblue_300.jpg,images/fiveSmallred_300.jpg,heavy,To which boxes is Pip referring to?,collective,inspect,together,Sun Jul 26 2020 16:10:29 GMT+0200 (Central European Summer Time),1595772629307,2.0611166666666665,image_selection_pip,1
1874,"This is what Pip tells Jim:<br /><br /><span style='font-size:150%'><strong>""The boxes were heavy.""</strong></span>",5057,22,,"Highschool graduate (Abitur, diploma or equivalent)",1595772752974,166,male,"Spanish, German, Catalan",distributive,collective,images/twoBigblue_300.jpg,images/fiveSmallred_300.jpg,heavy,To which boxes is Pip referring to?,distributive,inspect,bare,Sun Jul 26 2020 16:10:29 GMT+0200 (Central European Summer Time),1595772629307,2.0611166666666665,image_selection_pip,2
1874,"This is what Pip tells Jim:<br /><br /><span style='font-size:150%'><strong>""The boxes together were tall.""</strong></span>",5520,22,,"Highschool graduate (Abitur, diploma or equivalent)",1595772752974,166,male,"Spanish, German, Catalan",collective,distributive,images/fiveSmallred_300.jpg,images/twoBigblue_300.jpg,tall,To which boxes is Pip referring to?,collective,inspect,together,Sun Jul 26 2020 16:10:29 GMT+0200 (Central European Summer Time),1595772629307,2.0611166666666665,image_selection_pip,3
1874,"This is what Pip tells Jim:<br /><br /><span style='font-size:150%'><strong>""The boxes each were heavy.""</strong></span>",3096,22,,"Highschool graduate (Abitur, diploma or equivalent)",1595772752974,166,male,"Spanish, German, Catalan",distributive,collective,images/twoBigblue_300.jpg,images/fiveSmallred_300.jpg,heavy,To which boxes is Pip referring to?,distributive,inspect,each,Sun Jul 26 2020 16:10:29 GMT+0200 (Central European Summer Time),1595772629307,2.0611166666666665,image_selection_pip,4
1874,"This is what Pip tells Jim:<br /><br /><span style='font-size:150%'><strong>""The boxes each were big.""</strong></span>",1733,22,,"Highschool graduate (Abitur, diploma or equivalent)",1595772752974,166,male,"Spanish, German, Catalan",collective,distributive,images/fiveSmallred_300.jpg,images/twoBigblue_300.jpg,big,To which boxes is Pip referring to?,distributive,inspect,each,Sun Jul 26 2020 16:10:29 GMT+0200 (Central European Summer Time),1595772629307,2.0611166666666665,image_selection_pip,5
1874,"This is what Pip tells Jim:<br /><br /><span style='font-size:150%'><strong>""The boxes together were big.""</strong></span>",3147,22,,"Highschool graduate (Abitur, diploma or equivalent)",1595772752974,166,male,"Spanish, German, Catalan",collective,distributive,images/fiveSmallred_300.jpg,images/twoBigblue_300.jpg,big,To which boxes is Pip referring to?,collective,inspect,together,Sun Jul 26 2020 16:10:29 GMT+0200 (Central European Summer Time),1595772629307,2.0611166666666665,image_selection_pip,6
1874,"This is what Pip tells Jim:<br /><br /><span style='font-size:150%'><strong>""The boxes were tall.""</strong></span>",2099,22,,"Highschool graduate (Abitur, diploma or equivalent)",1595772752974,166,male,"Spanish, German, Catalan",collective,distributive,images/fiveSmallred_300.jpg,images/twoBigblue_300.jpg,tall,To which boxes is Pip referring to?,distributive,inspect,bare,Sun Jul 26 2020 16:10:29 GMT+0200 (Central European Summer Time),1595772629307,2.0611166666666665,image_selection_pip,7
1874,"This is what Pip tells Jim:<br /><br /><span style='font-size:150%'><strong>""The boxes each were tall.""</strong></span>",1752,22,,"Highschool graduate (Abitur, diploma or equivalent)",1595772752974,166,male,"Spanish, German, Catalan",collective,distributive,images/fiveSmallred_300.jpg,images/twoBigblue_300.jpg,tall,To which boxes is Pip referring to?,distributive,inspect,each,Sun Jul 26 2020 16:10:29 GMT+0200 (Central European Summer Time),1595772629307,2.0611166666666665,image_selection_pip,8
1874,"This is what Pip tells Jim:<br /><br /><span style='font-size:150%'><strong>""The boxes were big.""</strong></span>",3921,22,,"Highschool graduate (Abitur, diploma or equivalent)",1595772752974,166,male,"Spanish, German, Catalan",collective,distributive,images/fiveSmallred_300.jpg,images/twoBigblue_300.jpg,big,To which boxes is Pip referring to?,distributive,inspect,bare,Sun Jul 26 2020 16:10:29 GMT+0200 (Central European Summer Time),1595772629307,2.0611166666666665,image_selection_pip,9
1872,"This is what Pip tells Jim:<br /><br /><span style='font-size:150%'><strong>""The boxes each were tall.""</strong></span>",19452,,,,1595769829655,166,,,collective,distributive,images/fiveSmallred_300.jpg,images/twoBigblue_300.jpg,tall,To which boxes is Pip referring to?,collective,inspect,each,Sun Jul 26 2020 21:22:41 GMT+0800 (+08),1595769761637,1.1336333333333333,image_selection_pip,1
1872,"This is what Pip tells Jim:<br /><br /><span style='font-size:150%'><strong>""The boxes were tall.""</strong></span>",4875,,,,1595769829655,166,,,collective,distributive,images/fiveSmallred_300.jpg,images/twoBigblue_300.jpg,tall,To which boxes is Pip referring to?,distributive,inspect,bare,Sun Jul 26 2020 21:22:41 GMT+0800 (+08),1595769761637,1.1336333333333333,image_selection_pip,2
1872,"This is what Pip tells Jim:<br /><br /><span style='font-size:150%'><strong>""The boxes together were heavy.""</strong></span>",2975,,,,1595769829655,166,,,distributive,collective,images/twoBigblue_300.jpg,images/fiveSmallred_300.jpg,heavy,To which boxes is Pip referring to?,collective,inspect,together,Sun Jul 26 2020 21:22:41 GMT+0800 (+08),1595769761637,1.1336333333333333,image_selection_pip,3
1872,"This is what Pip tells Jim:<br /><br /><span style='font-size:150%'><strong>""The boxes were heavy.""</strong></span>",6519,,,,1595769829655,166,,,distributive,collective,images/twoBigblue_300.jpg,images/fiveSmallred_300.jpg,heavy,To which boxes is Pip referring to?,collective,inspect,bare,Sun Jul 26 2020 21:22:41 GMT+0800 (+08),1595769761637,1.1336333333333333,image_selection_pip,4
1872,"This is what Pip tells Jim:<br /><br /><span style='font-size:150%'><strong>""The boxes together were big.""</strong></span>",2045,,,,1595769829655,166,,,collective,distributive,images/fiveSmallred_300.jpg,images/twoBigblue_300.jpg,big,To which boxes is Pip referring to?,collective,inspect,together,Sun Jul 26 2020 21:22:41 GMT+0800 (+08),1595769761637,1.1336333333333333,image_selection_pip,5
1872,"This is what Pip tells Jim:<br /><br /><span style='font-size:150%'><strong>""The boxes each were big.""</strong></span>",1698,,,,1595769829655,166,,,collective,distributive,images/fiveSmallred_300.jpg,images/twoBigblue_300.jpg,big,To which boxes is Pip referring to?,distributive,inspect,each,Sun Jul 26 2020 21:22:41 GMT+0800 (+08),1595769761637,1.1336333333333333,image_selection_pip,6
1872,"This is what Pip tells Jim:<br /><br /><span style='font-size:150%'><strong>""The boxes each were heavy.""</strong></span>",2679,,,,1595769829655,166,,,distributive,collective,images/twoBigblue_300.jpg,images/fiveSmallred_300.jpg,heavy,To which boxes is Pip referring to?,distributive,inspect,each,Sun Jul 26 2020 21:22:41 GMT+0800 (+08),1595769761637,1.1336333333333333,image_selection_pip,7
1872,"This is what Pip tells Jim:<br /><br /><span style='font-size:150%'><strong>""The boxes were big.""</strong></span>",2422,,,,1595769829655,166,,,collective,distributive,images/fiveSmallred_300.jpg,images/twoBigblue_300.jpg,big,To which boxes is Pip referring to?,distributive,inspect,bare,Sun Jul 26 2020 21:22:41 GMT+0800 (+08),1595769761637,1.1336333333333333,image_selection_pip,8
1872,"This is what Pip tells Jim:<br /><br /><span style='font-size:150%'><strong>""The boxes together were tall.""</strong></span>",2558,,,,1595769829655,166,,,collective,distributive,images/fiveSmallred_300.jpg,images/twoBigblue_300.jpg,tall,To which boxes is Pip referring to?,collective,inspect,together,Sun Jul 26 2020 21:22:41 GMT+0800 (+08),1595769761637,1.1336333333333333,image_selection_pip,9
1870,"This is what Pip tells Jim:<br /><br /><span style='font-size:150%'><strong>""The boxes each were big.""</strong></span>",14948,30,,University degree (Bachelor),1595768003005,166,female,English ,collective,distributive,images/fiveSmallred_300.jpg,images/twoBigblue_300.jpg,big,To which boxes is Pip referring to?,distributive,inspect,each,Sun Jul 26 2020 20:51:26 GMT+0800 (AWST),1595767886004,1.9500166666666667,image_selection_pip,1
1870,"This is what Pip tells Jim:<br /><br /><span style='font-size:150%'><strong>""The boxes each were tall.""</strong></span>",7164,30,,University degree (Bachelor),1595768003005,166,female,English ,collective,distributive,images/fiveSmallred_300.jpg,images/twoBigblue_300.jpg,tall,To which boxes is Pip referring to?,distributive,inspect,each,Sun Jul 26 2020 20:51:26 GMT+0800 (AWST),1595767886004,1.9500166666666667,image_selection_pip,2
1870,"This is what Pip tells Jim:<br /><br /><span style='font-size:150%'><strong>""The boxes together were big.""</strong></span>",2679,30,,University degree (Bachelor),1595768003005,166,female,English ,collective,distributive,images/fiveSmallred_300.jpg,images/twoBigblue_300.jpg,big,To which boxes is Pip referring to?,collective,inspect,together,Sun Jul 26 2020 20:51:26 GMT+0800 (AWST),1595767886004,1.9500166666666667,image_selection_pip,3
1870,"This is what Pip tells Jim:<br /><br /><span style='font-size:150%'><strong>""The boxes together were heavy.""</strong></span>",7115,30,,University degree (Bachelor),1595768003005,166,female,English ,distributive,collective,images/twoBigblue_300.jpg,images/fiveSmallred_300.jpg,heavy,To which boxes is Pip referring to?,collective,inspect,together,Sun Jul 26 2020 20:51:26 GMT+0800 (AWST),1595767886004,1.9500166666666667,image_selection_pip,4
1870,"This is what Pip tells Jim:<br /><br /><span style='font-size:150%'><strong>""The boxes were tall.""</strong></span>",4219,30,,University degree (Bachelor),1595768003005,166,female,English ,collective,distributive,images/fiveSmallred_300.jpg,images/twoBigblue_300.jpg,tall,To which boxes is Pip referring to?,distributive,inspect,bare,Sun Jul 26 2020 20:51:26 GMT+0800 (AWST),1595767886004,1.9500166666666667,image_selection_pip,5
1870,"This is what Pip tells Jim:<br /><br /><span style='font-size:150%'><strong>""The boxes each were heavy.""</strong></span>",3243,30,,University degree (Bachelor),1595768003005,166,female,English ,distributive,collective,images/twoBigblue_300.jpg,images/fiveSmallred_300.jpg,heavy,To which boxes is Pip referring to?,distributive,inspect,each,Sun Jul 26 2020 20:51:26 GMT+0800 (AWST),1595767886004,1.9500166666666667,image_selection_pip,6
1870,"This is what Pip tells Jim:<br /><br /><span style='font-size:150%'><strong>""The boxes were heavy.""</strong></span>",10401,30,,University degree (Bachelor),1595768003005,166,female,English ,distributive,collective,images/twoBigblue_300.jpg,images/fiveSmallred_300.jpg,heavy,To which boxes is Pip referring to?,distributive,inspect,bare,Sun Jul 26 2020 20:51:26 GMT+0800 (AWST),1595767886004,1.9500166666666667,image_selection_pip,7
1870,"This is what Pip tells Jim:<br /><br /><span style='font-size:150%'><strong>""The boxes together were tall.""</strong></span>",3082,30,,University degree (Bachelor),1595768003005,166,female,English ,collective,distributive,images/fiveSmallred_300.jpg,images/twoBigblue_300.jpg,tall,To which boxes is Pip referring to?,collective,inspect,together,Sun Jul 26 2020 20:51:26 GMT+0800 (AWST),1595767886004,1.9500166666666667,image_selection_pip,8
1870,"This is what Pip tells Jim:<br /><br /><span style='font-size:150%'><strong>""The boxes were big.""</strong></span>",3228,30,,University degree (Bachelor),1595768003005,166,female,English ,collective,distributive,images/fiveSmallred_300.jpg,images/twoBigblue_300.jpg,big,To which boxes is Pip referring to?,distributive,inspect,bare,Sun Jul 26 2020 20:51:26 GMT+0800 (AWST),1595767886004,1.9500166666666667,image_selection_pip,9
1869,"This is what Pip tells Jim:<br /><br /><span style='font-size:150%'><strong>""The boxes together were tall.""</strong></span>",4260,28,"Some choices I did not think matched any (Ie each box was tall)\n\nI chose the heavy attribute to the ones stacked more carefully and well-aligned as I inferred heavy things should be managed more carefully.\n\nVery cool study! Post it to reddit when you’re done :)!",Higher degree,1595767801810,166,female,English ,collective,distributive,images/fiveSmallred_300.jpg,images/twoBigblue_300.jpg,tall,To which boxes is Pip referring to?,collective,inspect,together,Sun Jul 26 2020 08:47:22 GMT-0400 (EDT),1595767642933,2.64795,image_selection_pip,1
1869,"This is what Pip tells Jim:<br /><br /><span style='font-size:150%'><strong>""The boxes each were tall.""</strong></span>",14414,28,"Some choices I did not think matched any (Ie each box was tall)\n\nI chose the heavy attribute to the ones stacked more carefully and well-aligned as I inferred heavy things should be managed more carefully.\n\nVery cool study! Post it to reddit when you’re done :)!",Higher degree,1595767801810,166,female,English ,collective,distributive,images/fiveSmallred_300.jpg,images/twoBigblue_300.jpg,tall,To which boxes is Pip referring to?,collective,inspect,each,Sun Jul 26 2020 08:47:22 GMT-0400 (EDT),1595767642933,2.64795,image_selection_pip,2
1869,"This is what Pip tells Jim:<br /><br /><span style='font-size:150%'><strong>""The boxes were tall.""</strong></span>",2753,28,"Some choices I did not think matched any (Ie each box was tall)\n\nI chose the heavy attribute to the ones stacked more carefully and well-aligned as I inferred heavy things should be managed more carefully.\n\nVery cool study! Post it to reddit when you’re done :)!",Higher degree,1595767801810,166,female,English ,collective,distributive,images/fiveSmallred_300.jpg,images/twoBigblue_300.jpg,tall,To which boxes is Pip referring to?,collective,inspect,bare,Sun Jul 26 2020 08:47:22 GMT-0400 (EDT),1595767642933,2.64795,image_selection_pip,3
1869,"This is what Pip tells Jim:<br /><br /><span style='font-size:150%'><strong>""The boxes were heavy.""</strong></span>",2925,28,"Some choices I did not think matched any (Ie each box was tall)\n\nI chose the heavy attribute to the ones stacked more carefully and well-aligned as I inferred heavy things should be managed more carefully.\n\nVery cool study! Post it to reddit when you’re done :)!",Higher degree,1595767801810,166,female,English ,distributive,collective,images/twoBigblue_300.jpg,images/fiveSmallred_300.jpg,heavy,To which boxes is Pip referring to?,distributive,inspect,bare,Sun Jul 26 2020 08:47:22 GMT-0400 (EDT),1595767642933,2.64795,image_selection_pip,4
1869,"This is what Pip tells Jim:<br /><br /><span style='font-size:150%'><strong>""The boxes together were heavy.""</strong></span>",3279,28,"Some choices I did not think matched any (Ie each box was tall)\n\nI chose the heavy attribute to the ones stacked more carefully and well-aligned as I inferred heavy things should be managed more carefully.\n\nVery cool study! Post it to reddit when you’re done :)!",Higher degree,1595767801810,166,female,English ,distributive,collective,images/twoBigblue_300.jpg,images/fiveSmallred_300.jpg,heavy,To which boxes is Pip referring to?,distributive,inspect,together,Sun Jul 26 2020 08:47:22 GMT-0400 (EDT),1595767642933,2.64795,image_selection_pip,5
1869,"This is what Pip tells Jim:<br /><br /><span style='font-size:150%'><strong>""The boxes together were big.""</strong></span>",7223,28,"Some choices I did not think matched any (Ie each box was tall)\n\nI chose the heavy attribute to the ones stacked more carefully and well-aligned as I inferred heavy things should be managed more carefully.\n\nVery cool study! Post it to reddit when you’re done :)!",Higher degree,1595767801810,166,female,English ,collective,distributive,images/fiveSmallred_300.jpg,images/twoBigblue_300.jpg,big,To which boxes is Pip referring to?,collective,inspect,together,Sun Jul 26 2020 08:47:22 GMT-0400 (EDT),1595767642933,2.64795,image_selection_pip,6
1869,"This is what Pip tells Jim:<br /><br /><span style='font-size:150%'><strong>""The boxes were big.""</strong></span>",1691,28,"Some choices I did not think matched any (Ie each box was tall)\n\nI chose the heavy attribute to the ones stacked more carefully and well-aligned as I inferred heavy things should be managed more carefully.\n\nVery cool study! Post it to reddit when you’re done :)!",Higher degree,1595767801810,166,female,English ,collective,distributive,images/fiveSmallred_300.jpg,images/twoBigblue_300.jpg,big,To which boxes is Pip referring to?,collective,inspect,bare,Sun Jul 26 2020 08:47:22 GMT-0400 (EDT),1595767642933,2.64795,image_selection_pip,7
1869,"This is what Pip tells Jim:<br /><br /><span style='font-size:150%'><strong>""The boxes each were heavy.""</strong></span>",2314,28,"Some choices I did not think matched any (Ie each box was tall)\n\nI chose the heavy attribute to the ones stacked more carefully and well-aligned as I inferred heavy things should be managed more carefully.\n\nVery cool study! Post it to reddit when you’re done :)!",Higher degree,1595767801810,166,female,English ,distributive,collective,images/twoBigblue_300.jpg,images/fiveSmallred_300.jpg,heavy,To which boxes is Pip referring to?,distributive,inspect,each,Sun Jul 26 2020 08:47:22 GMT-0400 (EDT),1595767642933,2.64795,image_selection_pip,8
1869,"This is what Pip tells Jim:<br /><br /><span style='font-size:150%'><strong>""The boxes each were big.""</strong></span>",3815,28,"Some choices I did not think matched any (Ie each box was tall)\n\nI chose the heavy attribute to the ones stacked more carefully and well-aligned as I inferred heavy things should be managed more carefully.\n\nVery cool study! Post it to reddit when you’re done :)!",Higher degree,1595767801810,166,female,English ,collective,distributive,images/fiveSmallred_300.jpg,images/twoBigblue_300.jpg,big,To which boxes is Pip referring to?,distributive,inspect,each,Sun Jul 26 2020 08:47:22 GMT-0400 (EDT),1595767642933,2.64795,image_selection_pip,9
1867,"This is what Pip tells Jim:<br /><br /><span style='font-size:150%'><strong>""The boxes each were tall.""</strong></span>",5479,23,,University degree (Bachelor),1595765474323,166,male,English,collective,distributive,images/fiveSmallred_300.jpg,images/twoBigblue_300.jpg,tall,To which boxes is Pip referring to?,distributive,inspect,each,Sun Jul 26 2020 08:09:30 GMT-0400 (EDT),1595765370055,1.7378,image_selection_pip,1
1867,"This is what Pip tells Jim:<br /><br /><span style='font-size:150%'><strong>""The boxes were heavy.""</strong></span>",14099,23,,University degree (Bachelor),1595765474323,166,male,English,distributive,collective,images/twoBigblue_300.jpg,images/fiveSmallred_300.jpg,heavy,To which boxes is Pip referring to?,distributive,inspect,bare,Sun Jul 26 2020 08:09:30 GMT-0400 (EDT),1595765370055,1.7378,image_selection_pip,2
1867,"This is what Pip tells Jim:<br /><br /><span style='font-size:150%'><strong>""The boxes each were heavy.""</strong></span>",6264,23,,University degree (Bachelor),1595765474323,166,male,English,distributive,collective,images/twoBigblue_300.jpg,images/fiveSmallred_300.jpg,heavy,To which boxes is Pip referring to?,distributive,inspect,each,Sun Jul 26 2020 08:09:30 GMT-0400 (EDT),1595765370055,1.7378,image_selection_pip,3
1867,"This is what Pip tells Jim:<br /><br /><span style='font-size:150%'><strong>""The boxes together were big.""</strong></span>",3281,23,,University degree (Bachelor),1595765474323,166,male,English,collective,distributive,images/fiveSmallred_300.jpg,images/twoBigblue_300.jpg,big,To which boxes is Pip referring to?,collective,inspect,together,Sun Jul 26 2020 08:09:30 GMT-0400 (EDT),1595765370055,1.7378,image_selection_pip,4
1867,"This is what Pip tells Jim:<br /><br /><span style='font-size:150%'><strong>""The boxes were big.""</strong></span>",1866,23,,University degree (Bachelor),1595765474323,166,male,English,collective,distributive,images/fiveSmallred_300.jpg,images/twoBigblue_300.jpg,big,To which boxes is Pip referring to?,distributive,inspect,bare,Sun Jul 26 2020 08:09:30 GMT-0400 (EDT),1595765370055,1.7378,image_selection_pip,5
1867,"This is what Pip tells Jim:<br /><br /><span style='font-size:150%'><strong>""The boxes were tall.""</strong></span>",2880,23,,University degree (Bachelor),1595765474323,166,male,English,collective,distributive,images/fiveSmallred_300.jpg,images/twoBigblue_300.jpg,tall,To which boxes is Pip referring to?,distributive,inspect,bare,Sun Jul 26 2020 08:09:30 GMT-0400 (EDT),1595765370055,1.7378,image_selection_pip,6
1867,"This is what Pip tells Jim:<br /><br /><span style='font-size:150%'><strong>""The boxes each were big.""</strong></span>",2916,23,,University degree (Bachelor),1595765474323,166,male,English,collective,distributive,images/fiveSmallred_300.jpg,images/twoBigblue_300.jpg,big,To which boxes is Pip referring to?,distributive,inspect,each,Sun Jul 26 2020 08:09:30 GMT-0400 (EDT),1595765370055,1.7378,image_selection_pip,7
1867,"This is what Pip tells Jim:<br /><br /><span style='font-size:150%'><strong>""The boxes together were heavy.""</strong></span>",5180,23,,University degree (Bachelor),1595765474323,166,male,English,distributive,collective,images/twoBigblue_300.jpg,images/fiveSmallred_300.jpg,heavy,To which boxes is Pip referring to?,collective,inspect,together,Sun Jul 26 2020 08:09:30 GMT-0400 (EDT),1595765370055,1.7378,image_selection_pip,8
1867,"This is what Pip tells Jim:<br /><br /><span style='font-size:150%'><strong>""The boxes together were tall.""</strong></span>",2366,23,,University degree (Bachelor),1595765474323,166,male,English,collective,distributive,images/fiveSmallred_300.jpg,images/twoBigblue_300.jpg,tall,To which boxes is Pip referring to?,collective,inspect,together,Sun Jul 26 2020 08:09:30 GMT-0400 (EDT),1595765370055,1.7378,image_selection_pip,9
1866,"This is what Pip tells Jim:<br /><br /><span style='font-size:150%'><strong>""The boxes together were heavy.""</strong></span>",15676,22,Have been living in an English speaking country for the past 4 years and completed a university degree in English,University degree (Bachelor),1595764766358,166,male,Norwegian,distributive,collective,images/twoBigblue_300.jpg,images/fiveSmallred_300.jpg,heavy,To which boxes is Pip referring to?,collective,move,together,Sun Jul 26 2020 12:56:34 GMT+0100 (British Summer Time),1595764594091,2.8711166666666665,image_selection_pip,1
1866,"This is what Pip tells Jim:<br /><br /><span style='font-size:150%'><strong>""The boxes each were tall.""</strong></span>",3645,22,Have been living in an English speaking country for the past 4 years and completed a university degree in English,University degree (Bachelor),1595764766358,166,male,Norwegian,collective,distributive,images/fiveSmallred_300.jpg,images/twoBigblue_300.jpg,tall,To which boxes is Pip referring to?,distributive,move,each,Sun Jul 26 2020 12:56:34 GMT+0100 (British Summer Time),1595764594091,2.8711166666666665,image_selection_pip,2
1866,"This is what Pip tells Jim:<br /><br /><span style='font-size:150%'><strong>""The boxes each were big.""</strong></span>",1937,22,Have been living in an English speaking country for the past 4 years and completed a university degree in English,University degree (Bachelor),1595764766358,166,male,Norwegian,collective,distributive,images/fiveSmallred_300.jpg,images/twoBigblue_300.jpg,big,To which boxes is Pip referring to?,distributive,move,each,Sun Jul 26 2020 12:56:34 GMT+0100 (British Summer Time),1595764594091,2.8711166666666665,image_selection_pip,3
1866,"This is what Pip tells Jim:<br /><br /><span style='font-size:150%'><strong>""The boxes together were tall.""</strong></span>",3461,22,Have been living in an English speaking country for the past 4 years and completed a university degree in English,University degree (Bachelor),1595764766358,166,male,Norwegian,collective,distributive,images/fiveSmallred_300.jpg,images/twoBigblue_300.jpg,tall,To which boxes is Pip referring to?,collective,move,together,Sun Jul 26 2020 12:56:34 GMT+0100 (British Summer Time),1595764594091,2.8711166666666665,image_selection_pip,4
1866,"This is what Pip tells Jim:<br /><br /><span style='font-size:150%'><strong>""The boxes together were big.""</strong></span>",4026,22,Have been living in an English speaking country for the past 4 years and completed a university degree in English,University degree (Bachelor),1595764766358,166,male,Norwegian,collective,distributive,images/fiveSmallred_300.jpg,images/twoBigblue_300.jpg,big,To which boxes is Pip referring to?,collective,move,together,Sun Jul 26 2020 12:56:34 GMT+0100 (British Summer Time),1595764594091,2.8711166666666665,image_selection_pip,5
1866,"This is what Pip tells Jim:<br /><br /><span style='font-size:150%'><strong>""The boxes were big.""</strong></span>",1880,22,Have been living in an English speaking country for the past 4 years and completed a university degree in English,University degree (Bachelor),1595764766358,166,male,Norwegian,collective,distributive,images/fiveSmallred_300.jpg,images/twoBigblue_300.jpg,big,To which boxes is Pip referring to?,distributive,move,bare,Sun Jul 26 2020 12:56:34 GMT+0100 (British Summer Time),1595764594091,2.8711166666666665,image_selection_pip,6
1866,"This is what Pip tells Jim:<br /><br /><span style='font-size:150%'><strong>""The boxes were tall.""</strong></span>",1687,22,Have been living in an English speaking country for the past 4 years and completed a university degree in English,University degree (Bachelor),1595764766358,166,male,Norwegian,collective,distributive,images/fiveSmallred_300.jpg,images/twoBigblue_300.jpg,tall,To which boxes is Pip referring to?,distributive,move,bare,Sun Jul 26 2020 12:56:34 GMT+0100 (British Summer Time),1595764594091,2.8711166666666665,image_selection_pip,7
1866,"This is what Pip tells Jim:<br /><br /><span style='font-size:150%'><strong>""The boxes each were heavy.""</strong></span>",2717,22,Have been living in an English speaking country for the past 4 years and completed a university degree in English,University degree (Bachelor),1595764766358,166,male,Norwegian,distributive,collective,images/twoBigblue_300.jpg,images/fiveSmallred_300.jpg,heavy,To which boxes is Pip referring to?,distributive,move,each,Sun Jul 26 2020 12:56:34 GMT+0100 (British Summer Time),1595764594091,2.8711166666666665,image_selection_pip,8
1866,"This is what Pip tells Jim:<br /><br /><span style='font-size:150%'><strong>""The boxes were heavy.""</strong></span>",5688,22,Have been living in an English speaking country for the past 4 years and completed a university degree in English,University degree (Bachelor),1595764766358,166,male,Norwegian,distributive,collective,images/twoBigblue_300.jpg,images/fiveSmallred_300.jpg,heavy,To which boxes is Pip referring to?,collective,move,bare,Sun Jul 26 2020 12:56:34 GMT+0100 (British Summer Time),1595764594091,2.8711166666666665,image_selection_pip,9
1865,"This is what Pip tells Jim:<br /><br /><span style='font-size:150%'><strong>""The boxes each were big.""</strong></span>",3456,18,,"Highschool graduate (Abitur, diploma or equivalent)",1595762825667,166,female,English,collective,distributive,images/fiveSmallred_300.jpg,images/twoBigblue_300.jpg,big,To which boxes is Pip referring to?,distributive,move,each,Sun Jul 26 2020 21:26:06 GMT+1000 (Australian Eastern Standard Time),1595762766234,0.99055,image_selection_pip,1
1865,"This is what Pip tells Jim:<br /><br /><span style='font-size:150%'><strong>""The boxes were heavy.""</strong></span>",4100,18,,"Highschool graduate (Abitur, diploma or equivalent)",1595762825667,166,female,English,distributive,collective,images/twoBigblue_300.jpg,images/fiveSmallred_300.jpg,heavy,To which boxes is Pip referring to?,distributive,move,bare,Sun Jul 26 2020 21:26:06 GMT+1000 (Australian Eastern Standard Time),1595762766234,0.99055,image_selection_pip,2
1865,"This is what Pip tells Jim:<br /><br /><span style='font-size:150%'><strong>""The boxes each were tall.""</strong></span>",1828,18,,"Highschool graduate (Abitur, diploma or equivalent)",1595762825667,166,female,English,collective,distributive,images/fiveSmallred_300.jpg,images/twoBigblue_300.jpg,tall,To which boxes is Pip referring to?,distributive,move,each,Sun Jul 26 2020 21:26:06 GMT+1000 (Australian Eastern Standard Time),1595762766234,0.99055,image_selection_pip,3
1865,"This is what Pip tells Jim:<br /><br /><span style='font-size:150%'><strong>""The boxes together were tall.""</strong></span>",2167,18,,"Highschool graduate (Abitur, diploma or equivalent)",1595762825667,166,female,English,collective,distributive,images/fiveSmallred_300.jpg,images/twoBigblue_300.jpg,tall,To which boxes is Pip referring to?,collective,move,together,Sun Jul 26 2020 21:26:06 GMT+1000 (Australian Eastern Standard Time),1595762766234,0.99055,image_selection_pip,4
1865,"This is what Pip tells Jim:<br /><br /><span style='font-size:150%'><strong>""The boxes together were big.""</strong></span>",4289,18,,"Highschool graduate (Abitur, diploma or equivalent)",1595762825667,166,female,English,collective,distributive,images/fiveSmallred_300.jpg,images/twoBigblue_300.jpg,big,To which boxes is Pip referring to?,collective,move,together,Sun Jul 26 2020 21:26:06 GMT+1000 (Australian Eastern Standard Time),1595762766234,0.99055,image_selection_pip,5
1865,"This is what Pip tells Jim:<br /><br /><span style='font-size:150%'><strong>""The boxes were big.""</strong></span>",1692,18,,"Highschool graduate (Abitur, diploma or equivalent)",1595762825667,166,female,English,collective,distributive,images/fiveSmallred_300.jpg,images/twoBigblue_300.jpg,big,To which boxes is Pip referring to?,distributive,move,bare,Sun Jul 26 2020 21:26:06 GMT+1000 (Australian Eastern Standard Time),1595762766234,0.99055,image_selection_pip,6
1865,"This is what Pip tells Jim:<br /><br /><span style='font-size:150%'><strong>""The boxes together were heavy.""</strong></span>",4392,18,,"Highschool graduate (Abitur, diploma or equivalent)",1595762825667,166,female,English,distributive,collective,images/twoBigblue_300.jpg,images/fiveSmallred_300.jpg,heavy,To which boxes is Pip referring to?,collective,move,together,Sun Jul 26 2020 21:26:06 GMT+1000 (Australian Eastern Standard Time),1595762766234,0.99055,image_selection_pip,7
1865,"This is what Pip tells Jim:<br /><br /><span style='font-size:150%'><strong>""The boxes each were heavy.""</strong></span>",2600,18,,"Highschool graduate (Abitur, diploma or equivalent)",1595762825667,166,female,English,distributive,collective,images/twoBigblue_300.jpg,images/fiveSmallred_300.jpg,heavy,To which boxes is Pip referring to?,distributive,move,each,Sun Jul 26 2020 21:26:06 GMT+1000 (Australian Eastern Standard Time),1595762766234,0.99055,image_selection_pip,8
1865,"This is what Pip tells Jim:<br /><br /><span style='font-size:150%'><strong>""The boxes were tall.""</strong></span>",1794,18,,"Highschool graduate (Abitur, diploma or equivalent)",1595762825667,166,female,English,collective,distributive,images/fiveSmallred_300.jpg,images/twoBigblue_300.jpg,tall,To which boxes is Pip referring to?,collective,move,bare,Sun Jul 26 2020 21:26:06 GMT+1000 (Australian Eastern Standard Time),1595762766234,0.99055,image_selection_pip,9
1862,"This is what Pip tells Jim:<br /><br /><span style='font-size:150%'><strong>""The boxes were big.""</strong></span>",6480,29,,"Highschool graduate (Abitur, diploma or equivalent)",1595760251889,166,female,German,collective,distributive,images/fiveSmallred_300.jpg,images/twoBigblue_300.jpg,big,To which boxes is Pip referring to?,distributive,move,bare,Sun Jul 26 2020 12:41:43 GMT+0200 (CEST),1595760103745,2.4690666666666665,image_selection_pip,1
1862,"This is what Pip tells Jim:<br /><br /><span style='font-size:150%'><strong>""The boxes together were heavy.""</strong></span>",16784,29,,"Highschool graduate (Abitur, diploma or equivalent)",1595760251889,166,female,German,distributive,collective,images/twoBigblue_300.jpg,images/fiveSmallred_300.jpg,heavy,To which boxes is Pip referring to?,distributive,move,together,Sun Jul 26 2020 12:41:43 GMT+0200 (CEST),1595760103745,2.4690666666666665,image_selection_pip,2
1862,"This is what Pip tells Jim:<br /><br /><span style='font-size:150%'><strong>""The boxes each were heavy.""</strong></span>",3931,29,,"Highschool graduate (Abitur, diploma or equivalent)",1595760251889,166,female,German,distributive,collective,images/twoBigblue_300.jpg,images/fiveSmallred_300.jpg,heavy,To which boxes is Pip referring to?,distributive,move,each,Sun Jul 26 2020 12:41:43 GMT+0200 (CEST),1595760103745,2.4690666666666665,image_selection_pip,3
1862,"This is what Pip tells Jim:<br /><br /><span style='font-size:150%'><strong>""The boxes together were tall.""</strong></span>",3742,29,,"Highschool graduate (Abitur, diploma or equivalent)",1595760251889,166,female,German,collective,distributive,images/fiveSmallred_300.jpg,images/twoBigblue_300.jpg,tall,To which boxes is Pip referring to?,collective,move,together,Sun Jul 26 2020 12:41:43 GMT+0200 (CEST),1595760103745,2.4690666666666665,image_selection_pip,4
1862,"This is what Pip tells Jim:<br /><br /><span style='font-size:150%'><strong>""The boxes each were big.""</strong></span>",8980,29,,"Highschool graduate (Abitur, diploma or equivalent)",1595760251889,166,female,German,collective,distributive,images/fiveSmallred_300.jpg,images/twoBigblue_300.jpg,big,To which boxes is Pip referring to?,distributive,move,each,Sun Jul 26 2020 12:41:43 GMT+0200 (CEST),1595760103745,2.4690666666666665,image_selection_pip,5
1862,"This is what Pip tells Jim:<br /><br /><span style='font-size:150%'><strong>""The boxes each were tall.""</strong></span>",4956,29,,"Highschool graduate (Abitur, diploma or equivalent)",1595760251889,166,female,German,collective,distributive,images/fiveSmallred_300.jpg,images/twoBigblue_300.jpg,tall,To which boxes is Pip referring to?,distributive,move,each,Sun Jul 26 2020 12:41:43 GMT+0200 (CEST),1595760103745,2.4690666666666665,image_selection_pip,6
1862,"This is what Pip tells Jim:<br /><br /><span style='font-size:150%'><strong>""The boxes were heavy.""</strong></span>",6374,29,,"Highschool graduate (Abitur, diploma or equivalent)",1595760251889,166,female,German,distributive,collective,images/twoBigblue_300.jpg,images/fiveSmallred_300.jpg,heavy,To which boxes is Pip referring to?,distributive,move,bare,Sun Jul 26 2020 12:41:43 GMT+0200 (CEST),1595760103745,2.4690666666666665,image_selection_pip,7
1862,"This is what Pip tells Jim:<br /><br /><span style='font-size:150%'><strong>""The boxes were tall.""</strong></span>",4273,29,,"Highschool graduate (Abitur, diploma or equivalent)",1595760251889,166,female,German,collective,distributive,images/fiveSmallred_300.jpg,images/twoBigblue_300.jpg,tall,To which boxes is Pip referring to?,distributive,move,bare,Sun Jul 26 2020 12:41:43 GMT+0200 (CEST),1595760103745,2.4690666666666665,image_selection_pip,8
1862,"This is what Pip tells Jim:<br /><br /><span style='font-size:150%'><strong>""The boxes together were big.""</strong></span>",5306,29,,"Highschool graduate (Abitur, diploma or equivalent)",1595760251889,166,female,German,collective,distributive,images/fiveSmallred_300.jpg,images/twoBigblue_300.jpg,big,To which boxes is Pip referring to?,collective,move,together,Sun Jul 26 2020 12:41:43 GMT+0200 (CEST),1595760103745,2.4690666666666665,image_selection_pip,9
1861,"This is what Pip tells Jim:<br /><br /><span style='font-size:150%'><strong>""The boxes each were tall.""</strong></span>",14640,22,"fun lab, ey?","Highschool graduate (Abitur, diploma or equivalent)",1595760169121,166,other,german,collective,distributive,images/fiveSmallred_300.jpg,images/twoBigblue_300.jpg,tall,To which boxes is Pip referring to?,distributive,inspect,each,Sun Jul 26 2020 12:40:59 GMT+0200 (Mitteleuropäische Sommerzeit),1595760059938,1.8197166666666666,image_selection_pip,1
1861,"This is what Pip tells Jim:<br /><br /><span style='font-size:150%'><strong>""The boxes were big.""</strong></span>",6295,22,"fun lab, ey?","Highschool graduate (Abitur, diploma or equivalent)",1595760169121,166,other,german,collective,distributive,images/fiveSmallred_300.jpg,images/twoBigblue_300.jpg,big,To which boxes is Pip referring to?,distributive,inspect,bare,Sun Jul 26 2020 12:40:59 GMT+0200 (Mitteleuropäische Sommerzeit),1595760059938,1.8197166666666666,image_selection_pip,2
1861,"This is what Pip tells Jim:<br /><br /><span style='font-size:150%'><strong>""The boxes each were big.""</strong></span>",3978,22,"fun lab, ey?","Highschool graduate (Abitur, diploma or equivalent)",1595760169121,166,other,german,collective,distributive,images/fiveSmallred_300.jpg,images/twoBigblue_300.jpg,big,To which boxes is Pip referring to?,distributive,inspect,each,Sun Jul 26 2020 12:40:59 GMT+0200 (Mitteleuropäische Sommerzeit),1595760059938,1.8197166666666666,image_selection_pip,3
1861,"This is what Pip tells Jim:<br /><br /><span style='font-size:150%'><strong>""The boxes were heavy.""</strong></span>",7728,22,"fun lab, ey?","Highschool graduate (Abitur, diploma or equivalent)",1595760169121,166,other,german,distributive,collective,images/twoBigblue_300.jpg,images/fiveSmallred_300.jpg,heavy,To which boxes is Pip referring to?,distributive,inspect,bare,Sun Jul 26 2020 12:40:59 GMT+0200 (Mitteleuropäische Sommerzeit),1595760059938,1.8197166666666666,image_selection_pip,4
1861,"This is what Pip tells Jim:<br /><br /><span style='font-size:150%'><strong>""The boxes each were heavy.""</strong></span>",1840,22,"fun lab, ey?","Highschool graduate (Abitur, diploma or equivalent)",1595760169121,166,other,german,distributive,collective,images/twoBigblue_300.jpg,images/fiveSmallred_300.jpg,heavy,To which boxes is Pip referring to?,distributive,inspect,each,Sun Jul 26 2020 12:40:59 GMT+0200 (Mitteleuropäische Sommerzeit),1595760059938,1.8197166666666666,image_selection_pip,5
1861,"This is what Pip tells Jim:<br /><br /><span style='font-size:150%'><strong>""The boxes together were heavy.""</strong></span>",5717,22,"fun lab, ey?","Highschool graduate (Abitur, diploma or equivalent)",1595760169121,166,other,german,distributive,collective,images/twoBigblue_300.jpg,images/fiveSmallred_300.jpg,heavy,To which boxes is Pip referring to?,collective,inspect,together,Sun Jul 26 2020 12:40:59 GMT+0200 (Mitteleuropäische Sommerzeit),1595760059938,1.8197166666666666,image_selection_pip,6
1861,"This is what Pip tells Jim:<br /><br /><span style='font-size:150%'><strong>""The boxes together were tall.""</strong></span>",2702,22,"fun lab, ey?","Highschool graduate (Abitur, diploma or equivalent)",1595760169121,166,other,german,collective,distributive,images/fiveSmallred_300.jpg,images/twoBigblue_300.jpg,tall,To which boxes is Pip referring to?,collective,inspect,together,Sun Jul 26 2020 12:40:59 GMT+0200 (Mitteleuropäische Sommerzeit),1595760059938,1.8197166666666666,image_selection_pip,7
1861,"This is what Pip tells Jim:<br /><br /><span style='font-size:150%'><strong>""The boxes together were big.""</strong></span>",1543,22,"fun lab, ey?","Highschool graduate (Abitur, diploma or equivalent)",1595760169121,166,other,german,collective,distributive,images/fiveSmallred_300.jpg,images/twoBigblue_300.jpg,big,To which boxes is Pip referring to?,collective,inspect,together,Sun Jul 26 2020 12:40:59 GMT+0200 (Mitteleuropäische Sommerzeit),1595760059938,1.8197166666666666,image_selection_pip,8
1861,"This is what Pip tells Jim:<br /><br /><span style='font-size:150%'><strong>""The boxes were tall.""</strong></span>",4032,22,"fun lab, ey?","Highschool graduate (Abitur, diploma or equivalent)",1595760169121,166,other,german,collective,distributive,images/fiveSmallred_300.jpg,images/twoBigblue_300.jpg,tall,To which boxes is Pip referring to?,distributive,inspect,bare,Sun Jul 26 2020 12:40:59 GMT+0200 (Mitteleuropäische Sommerzeit),1595760059938,1.8197166666666666,image_selection_pip,9
1860,"This is what Pip tells Jim:<br /><br /><span style='font-size:150%'><strong>""The boxes each were heavy.""</strong></span>",4350,32,,Higher degree,1595760077046,166,male,Danish,distributive,collective,images/twoBigblue_300.jpg,images/fiveSmallred_300.jpg,heavy,To which boxes is Pip referring to?,distributive,move,each,Sun Jul 26 2020 12:39:39 GMT+0200 (Central European Summer Time),1595759979660,1.6231,image_selection_pip,1
1860,"This is what Pip tells Jim:<br /><br /><span style='font-size:150%'><strong>""The boxes each were tall.""</strong></span>",7968,32,,Higher degree,1595760077046,166,male,Danish,collective,distributive,images/fiveSmallred_300.jpg,images/twoBigblue_300.jpg,tall,To which boxes is Pip referring to?,distributive,move,each,Sun Jul 26 2020 12:39:39 GMT+0200 (Central European Summer Time),1595759979660,1.6231,image_selection_pip,2
1860,"This is what Pip tells Jim:<br /><br /><span style='font-size:150%'><strong>""The boxes were heavy.""</strong></span>",5178,32,,Higher degree,1595760077046,166,male,Danish,distributive,collective,images/twoBigblue_300.jpg,images/fiveSmallred_300.jpg,heavy,To which boxes is Pip referring to?,distributive,move,bare,Sun Jul 26 2020 12:39:39 GMT+0200 (Central European Summer Time),1595759979660,1.6231,image_selection_pip,3
1860,"This is what Pip tells Jim:<br /><br /><span style='font-size:150%'><strong>""The boxes were big.""</strong></span>",2389,32,,Higher degree,1595760077046,166,male,Danish,collective,distributive,images/fiveSmallred_300.jpg,images/twoBigblue_300.jpg,big,To which boxes is Pip referring to?,distributive,move,bare,Sun Jul 26 2020 12:39:39 GMT+0200 (Central European Summer Time),1595759979660,1.6231,image_selection_pip,4
1860,"This is what Pip tells Jim:<br /><br /><span style='font-size:150%'><strong>""The boxes were tall.""</strong></span>",1354,32,,Higher degree,1595760077046,166,male,Danish,collective,distributive,images/fiveSmallred_300.jpg,images/twoBigblue_300.jpg,tall,To which boxes is Pip referring to?,distributive,move,bare,Sun Jul 26 2020 12:39:39 GMT+0200 (Central European Summer Time),1595759979660,1.6231,image_selection_pip,5
1860,"This is what Pip tells Jim:<br /><br /><span style='font-size:150%'><strong>""The boxes each were big.""</strong></span>",2407,32,,Higher degree,1595760077046,166,male,Danish,collective,distributive,images/fiveSmallred_300.jpg,images/twoBigblue_300.jpg,big,To which boxes is Pip referring to?,distributive,move,each,Sun Jul 26 2020 12:39:39 GMT+0200 (Central European Summer Time),1595759979660,1.6231,image_selection_pip,6
1860,"This is what Pip tells Jim:<br /><br /><span style='font-size:150%'><strong>""The boxes together were tall.""</strong></span>",1833,32,,Higher degree,1595760077046,166,male,Danish,collective,distributive,images/fiveSmallred_300.jpg,images/twoBigblue_300.jpg,tall,To which boxes is Pip referring to?,distributive,move,together,Sun Jul 26 2020 12:39:39 GMT+0200 (Central European Summer Time),1595759979660,1.6231,image_selection_pip,7
1860,"This is what Pip tells Jim:<br /><br /><span style='font-size:150%'><strong>""The boxes together were big.""</strong></span>",3483,32,,Higher degree,1595760077046,166,male,Danish,collective,distributive,images/fiveSmallred_300.jpg,images/twoBigblue_300.jpg,big,To which boxes is Pip referring to?,collective,move,together,Sun Jul 26 2020 12:39:39 GMT+0200 (Central European Summer Time),1595759979660,1.6231,image_selection_pip,8
1860,"This is what Pip tells Jim:<br /><br /><span style='font-size:150%'><strong>""The boxes together were heavy.""</strong></span>",1840,32,,Higher degree,1595760077046,166,male,Danish,distributive,collective,images/twoBigblue_300.jpg,images/fiveSmallred_300.jpg,heavy,To which boxes is Pip referring to?,collective,move,together,Sun Jul 26 2020 12:39:39 GMT+0200 (Central European Summer Time),1595759979660,1.6231,image_selection_pip,9
1858,"This is what Pip tells Jim:<br /><br /><span style='font-size:150%'><strong>""The boxes each were tall.""</strong></span>",14522,29,Na,"Highschool graduate (Abitur, diploma or equivalent)",1595759285287,166,female,English ,collective,distributive,images/fiveSmallred_300.jpg,images/twoBigblue_300.jpg,tall,To which boxes is Pip referring to?,distributive,inspect,each,Sun Jul 26 2020 03:26:05 GMT-0700 (PDT),1595759165898,1.9898166666666666,image_selection_pip,1
1858,"This is what Pip tells Jim:<br /><br /><span style='font-size:150%'><strong>""The boxes together were tall.""</strong></span>",12923,29,Na,"Highschool graduate (Abitur, diploma or equivalent)",1595759285287,166,female,English ,collective,distributive,images/fiveSmallred_300.jpg,images/twoBigblue_300.jpg,tall,To which boxes is Pip referring to?,collective,inspect,together,Sun Jul 26 2020 03:26:05 GMT-0700 (PDT),1595759165898,1.9898166666666666,image_selection_pip,2
1858,"This is what Pip tells Jim:<br /><br /><span style='font-size:150%'><strong>""The boxes were heavy.""</strong></span>",13645,29,Na,"Highschool graduate (Abitur, diploma or equivalent)",1595759285287,166,female,English ,distributive,collective,images/twoBigblue_300.jpg,images/fiveSmallred_300.jpg,heavy,To which boxes is Pip referring to?,collective,inspect,bare,Sun Jul 26 2020 03:26:05 GMT-0700 (PDT),1595759165898,1.9898166666666666,image_selection_pip,3
1858,"This is what Pip tells Jim:<br /><br /><span style='font-size:150%'><strong>""The boxes together were big.""</strong></span>",6380,29,Na,"Highschool graduate (Abitur, diploma or equivalent)",1595759285287,166,female,English ,collective,distributive,images/fiveSmallred_300.jpg,images/twoBigblue_300.jpg,big,To which boxes is Pip referring to?,distributive,inspect,together,Sun Jul 26 2020 03:26:05 GMT-0700 (PDT),1595759165898,1.9898166666666666,image_selection_pip,4
1858,"This is what Pip tells Jim:<br /><br /><span style='font-size:150%'><strong>""The boxes were big.""</strong></span>",2734,29,Na,"Highschool graduate (Abitur, diploma or equivalent)",1595759285287,166,female,English ,collective,distributive,images/fiveSmallred_300.jpg,images/twoBigblue_300.jpg,big,To which boxes is Pip referring to?,distributive,inspect,bare,Sun Jul 26 2020 03:26:05 GMT-0700 (PDT),1595759165898,1.9898166666666666,image_selection_pip,5
1858,"This is what Pip tells Jim:<br /><br /><span style='font-size:150%'><strong>""The boxes were tall.""</strong></span>",2078,29,Na,"Highschool graduate (Abitur, diploma or equivalent)",1595759285287,166,female,English ,collective,distributive,images/fiveSmallred_300.jpg,images/twoBigblue_300.jpg,tall,To which boxes is Pip referring to?,distributive,inspect,bare,Sun Jul 26 2020 03:26:05 GMT-0700 (PDT),1595759165898,1.9898166666666666,image_selection_pip,6
1858,"This is what Pip tells Jim:<br /><br /><span style='font-size:150%'><strong>""The boxes each were heavy.""</strong></span>",3782,29,Na,"Highschool graduate (Abitur, diploma or equivalent)",1595759285287,166,female,English ,distributive,collective,images/twoBigblue_300.jpg,images/fiveSmallred_300.jpg,heavy,To which boxes is Pip referring to?,distributive,inspect,each,Sun Jul 26 2020 03:26:05 GMT-0700 (PDT),1595759165898,1.9898166666666666,image_selection_pip,7
1858,"This is what Pip tells Jim:<br /><br /><span style='font-size:150%'><strong>""The boxes together were heavy.""</strong></span>",2864,29,Na,"Highschool graduate (Abitur, diploma or equivalent)",1595759285287,166,female,English ,distributive,collective,images/twoBigblue_300.jpg,images/fiveSmallred_300.jpg,heavy,To which boxes is Pip referring to?,collective,inspect,together,Sun Jul 26 2020 03:26:05 GMT-0700 (PDT),1595759165898,1.9898166666666666,image_selection_pip,8
1858,"This is what Pip tells Jim:<br /><br /><span style='font-size:150%'><strong>""The boxes each were big.""</strong></span>",4007,29,Na,"Highschool graduate (Abitur, diploma or equivalent)",1595759285287,166,female,English ,collective,distributive,images/fiveSmallred_300.jpg,images/twoBigblue_300.jpg,big,To which boxes is Pip referring to?,distributive,inspect,each,Sun Jul 26 2020 03:26:05 GMT-0700 (PDT),1595759165898,1.9898166666666666,image_selection_pip,9
1857,"This is what Pip tells Jim:<br /><br /><span style='font-size:150%'><strong>""The boxes each were tall.""</strong></span>",5398,18,,"Highschool graduate (Abitur, diploma or equivalent)",1595757167170,166,other,Russian and English,collective,distributive,images/fiveSmallred_300.jpg,images/twoBigblue_300.jpg,tall,To which boxes is Pip referring to?,distributive,inspect,each,"Sun Jul 26 2020 12:51:37 GMT+0300 (Москва, стандартное время)",1595757097068,1.1683666666666668,image_selection_pip,1
1857,"This is what Pip tells Jim:<br /><br /><span style='font-size:150%'><strong>""The boxes were tall.""</strong></span>",4177,18,,"Highschool graduate (Abitur, diploma or equivalent)",1595757167170,166,other,Russian and English,collective,distributive,images/fiveSmallred_300.jpg,images/twoBigblue_300.jpg,tall,To which boxes is Pip referring to?,distributive,inspect,bare,"Sun Jul 26 2020 12:51:37 GMT+0300 (Москва, стандартное время)",1595757097068,1.1683666666666668,image_selection_pip,2
1857,"This is what Pip tells Jim:<br /><br /><span style='font-size:150%'><strong>""The boxes together were big.""</strong></span>",3565,18,,"Highschool graduate (Abitur, diploma or equivalent)",1595757167170,166,other,Russian and English,collective,distributive,images/fiveSmallred_300.jpg,images/twoBigblue_300.jpg,big,To which boxes is Pip referring to?,collective,inspect,together,"Sun Jul 26 2020 12:51:37 GMT+0300 (Москва, стандартное время)",1595757097068,1.1683666666666668,image_selection_pip,3
1857,"This is what Pip tells Jim:<br /><br /><span style='font-size:150%'><strong>""The boxes together were tall.""</strong></span>",2440,18,,"Highschool graduate (Abitur, diploma or equivalent)",1595757167170,166,other,Russian and English,collective,distributive,images/fiveSmallred_300.jpg,images/twoBigblue_300.jpg,tall,To which boxes is Pip referring to?,collective,inspect,together,"Sun Jul 26 2020 12:51:37 GMT+0300 (Москва, стандартное время)",1595757097068,1.1683666666666668,image_selection_pip,4
1857,"This is what Pip tells Jim:<br /><br /><span style='font-size:150%'><strong>""The boxes each were heavy.""</strong></span>",5949,18,,"Highschool graduate (Abitur, diploma or equivalent)",1595757167170,166,other,Russian and English,distributive,collective,images/twoBigblue_300.jpg,images/fiveSmallred_300.jpg,heavy,To which boxes is Pip referring to?,distributive,inspect,each,"Sun Jul 26 2020 12:51:37 GMT+0300 (Москва, стандартное время)",1595757097068,1.1683666666666668,image_selection_pip,5
1857,"This is what Pip tells Jim:<br /><br /><span style='font-size:150%'><strong>""The boxes were big.""</strong></span>",1968,18,,"Highschool graduate (Abitur, diploma or equivalent)",1595757167170,166,other,Russian and English,collective,distributive,images/fiveSmallred_300.jpg,images/twoBigblue_300.jpg,big,To which boxes is Pip referring to?,distributive,inspect,bare,"Sun Jul 26 2020 12:51:37 GMT+0300 (Москва, стандартное время)",1595757097068,1.1683666666666668,image_selection_pip,6
1857,"This is what Pip tells Jim:<br /><br /><span style='font-size:150%'><strong>""The boxes each were big.""</strong></span>",2201,18,,"Highschool graduate (Abitur, diploma or equivalent)",1595757167170,166,other,Russian and English,collective,distributive,images/fiveSmallred_300.jpg,images/twoBigblue_300.jpg,big,To which boxes is Pip referring to?,distributive,inspect,each,"Sun Jul 26 2020 12:51:37 GMT+0300 (Москва, стандартное время)",1595757097068,1.1683666666666668,image_selection_pip,7
1857,"This is what Pip tells Jim:<br /><br /><span style='font-size:150%'><strong>""The boxes together were heavy.""</strong></span>",2762,18,,"Highschool graduate (Abitur, diploma or equivalent)",1595757167170,166,other,Russian and English,distributive,collective,images/twoBigblue_300.jpg,images/fiveSmallred_300.jpg,heavy,To which boxes is Pip referring to?,collective,inspect,together,"Sun Jul 26 2020 12:51:37 GMT+0300 (Москва, стандартное время)",1595757097068,1.1683666666666668,image_selection_pip,8
1857,"This is what Pip tells Jim:<br /><br /><span style='font-size:150%'><strong>""The boxes were heavy.""</strong></span>",4776,18,,"Highschool graduate (Abitur, diploma or equivalent)",1595757167170,166,other,Russian and English,distributive,collective,images/twoBigblue_300.jpg,images/fiveSmallred_300.jpg,heavy,To which boxes is Pip referring to?,collective,inspect,bare,"Sun Jul 26 2020 12:51:37 GMT+0300 (Москва, стандартное время)",1595757097068,1.1683666666666668,image_selection_pip,9
1854,"This is what Pip tells Jim:<br /><br /><span style='font-size:150%'><strong>""The boxes together were heavy.""</strong></span>",8913,20,What the heck??,"Highschool graduate (Abitur, diploma or equivalent)",1595755228419,166,female,English,distributive,collective,images/twoBigblue_300.jpg,images/fiveSmallred_300.jpg,heavy,To which boxes is Pip referring to?,collective,move,together,Sun Jul 26 2020 05:17:15 GMT-0400 (Eastern Daylight Time),1595755035747,3.2112,image_selection_pip,1
1854,"This is what Pip tells Jim:<br /><br /><span style='font-size:150%'><strong>""The boxes were heavy.""</strong></span>",6972,20,What the heck??,"Highschool graduate (Abitur, diploma or equivalent)",1595755228419,166,female,English,distributive,collective,images/twoBigblue_300.jpg,images/fiveSmallred_300.jpg,heavy,To which boxes is Pip referring to?,collective,move,bare,Sun Jul 26 2020 05:17:15 GMT-0400 (Eastern Daylight Time),1595755035747,3.2112,image_selection_pip,2
1854,"This is what Pip tells Jim:<br /><br /><span style='font-size:150%'><strong>""The boxes each were tall.""</strong></span>",3015,20,What the heck??,"Highschool graduate (Abitur, diploma or equivalent)",1595755228419,166,female,English,collective,distributive,images/fiveSmallred_300.jpg,images/twoBigblue_300.jpg,tall,To which boxes is Pip referring to?,collective,move,each,Sun Jul 26 2020 05:17:15 GMT-0400 (Eastern Daylight Time),1595755035747,3.2112,image_selection_pip,3
1854,"This is what Pip tells Jim:<br /><br /><span style='font-size:150%'><strong>""The boxes were tall.""</strong></span>",3700,20,What the heck??,"Highschool graduate (Abitur, diploma or equivalent)",1595755228419,166,female,English,collective,distributive,images/fiveSmallred_300.jpg,images/twoBigblue_300.jpg,tall,To which boxes is Pip referring to?,collective,move,bare,Sun Jul 26 2020 05:17:15 GMT-0400 (Eastern Daylight Time),1595755035747,3.2112,image_selection_pip,4
1854,"This is what Pip tells Jim:<br /><br /><span style='font-size:150%'><strong>""The boxes together were big.""</strong></span>",6426,20,What the heck??,"Highschool graduate (Abitur, diploma or equivalent)",1595755228419,166,female,English,collective,distributive,images/fiveSmallred_300.jpg,images/twoBigblue_300.jpg,big,To which boxes is Pip referring to?,collective,move,together,Sun Jul 26 2020 05:17:15 GMT-0400 (Eastern Daylight Time),1595755035747,3.2112,image_selection_pip,5
1854,"This is what Pip tells Jim:<br /><br /><span style='font-size:150%'><strong>""The boxes together were tall.""</strong></span>",2201,20,What the heck??,"Highschool graduate (Abitur, diploma or equivalent)",1595755228419,166,female,English,collective,distributive,images/fiveSmallred_300.jpg,images/twoBigblue_300.jpg,tall,To which boxes is Pip referring to?,collective,move,together,Sun Jul 26 2020 05:17:15 GMT-0400 (Eastern Daylight Time),1595755035747,3.2112,image_selection_pip,6
1854,"This is what Pip tells Jim:<br /><br /><span style='font-size:150%'><strong>""The boxes were big.""</strong></span>",7028,20,What the heck??,"Highschool graduate (Abitur, diploma or equivalent)",1595755228419,166,female,English,collective,distributive,images/fiveSmallred_300.jpg,images/twoBigblue_300.jpg,big,To which boxes is Pip referring to?,collective,move,bare,Sun Jul 26 2020 05:17:15 GMT-0400 (Eastern Daylight Time),1595755035747,3.2112,image_selection_pip,7
1854,"This is what Pip tells Jim:<br /><br /><span style='font-size:150%'><strong>""The boxes each were big.""</strong></span>",2215,20,What the heck??,"Highschool graduate (Abitur, diploma or equivalent)",1595755228419,166,female,English,collective,distributive,images/fiveSmallred_300.jpg,images/twoBigblue_300.jpg,big,To which boxes is Pip referring to?,collective,move,each,Sun Jul 26 2020 05:17:15 GMT-0400 (Eastern Daylight Time),1595755035747,3.2112,image_selection_pip,8
1854,"This is what Pip tells Jim:<br /><br /><span style='font-size:150%'><strong>""The boxes each were heavy.""</strong></span>",2014,20,What the heck??,"Highschool graduate (Abitur, diploma or equivalent)",1595755228419,166,female,English,distributive,collective,images/twoBigblue_300.jpg,images/fiveSmallred_300.jpg,heavy,To which boxes is Pip referring to?,collective,move,each,Sun Jul 26 2020 05:17:15 GMT-0400 (Eastern Daylight Time),1595755035747,3.2112,image_selection_pip,9
1852,"This is what Pip tells Jim:<br /><br /><span style='font-size:150%'><strong>""The boxes each were heavy.""</strong></span>",4424,23,I missed the second instruction page due to lag :( Might be better to omit my entry,University degree (Bachelor),1595754484949,166,male,"English, Mandarin",distributive,collective,images/twoBigblue_300.jpg,images/fiveSmallred_300.jpg,heavy,To which boxes is Pip referring to?,collective,inspect,each,Sun Jul 26 2020 17:06:34 GMT+0800 (+08),1595754394997,1.4992,image_selection_pip,1
1852,"This is what Pip tells Jim:<br /><br /><span style='font-size:150%'><strong>""The boxes together were big.""</strong></span>",5906,23,I missed the second instruction page due to lag :( Might be better to omit my entry,University degree (Bachelor),1595754484949,166,male,"English, Mandarin",collective,distributive,images/fiveSmallred_300.jpg,images/twoBigblue_300.jpg,big,To which boxes is Pip referring to?,distributive,inspect,together,Sun Jul 26 2020 17:06:34 GMT+0800 (+08),1595754394997,1.4992,image_selection_pip,2
1852,"This is what Pip tells Jim:<br /><br /><span style='font-size:150%'><strong>""The boxes each were tall.""</strong></span>",2268,23,I missed the second instruction page due to lag :( Might be better to omit my entry,University degree (Bachelor),1595754484949,166,male,"English, Mandarin",collective,distributive,images/fiveSmallred_300.jpg,images/twoBigblue_300.jpg,tall,To which boxes is Pip referring to?,distributive,inspect,each,Sun Jul 26 2020 17:06:34 GMT+0800 (+08),1595754394997,1.4992,image_selection_pip,3
1852,"This is what Pip tells Jim:<br /><br /><span style='font-size:150%'><strong>""The boxes were big.""</strong></span>",2438,23,I missed the second instruction page due to lag :( Might be better to omit my entry,University degree (Bachelor),1595754484949,166,male,"English, Mandarin",collective,distributive,images/fiveSmallred_300.jpg,images/twoBigblue_300.jpg,big,To which boxes is Pip referring to?,distributive,inspect,bare,Sun Jul 26 2020 17:06:34 GMT+0800 (+08),1595754394997,1.4992,image_selection_pip,4
1852,"This is what Pip tells Jim:<br /><br /><span style='font-size:150%'><strong>""The boxes each were big.""</strong></span>",2439,23,I missed the second instruction page due to lag :( Might be better to omit my entry,University degree (Bachelor),1595754484949,166,male,"English, Mandarin",collective,distributive,images/fiveSmallred_300.jpg,images/twoBigblue_300.jpg,big,To which boxes is Pip referring to?,distributive,inspect,each,Sun Jul 26 2020 17:06:34 GMT+0800 (+08),1595754394997,1.4992,image_selection_pip,5
1852,"This is what Pip tells Jim:<br /><br /><span style='font-size:150%'><strong>""The boxes were heavy.""</strong></span>",3916,23,I missed the second instruction page due to lag :( Might be better to omit my entry,University degree (Bachelor),1595754484949,166,male,"English, Mandarin",distributive,collective,images/twoBigblue_300.jpg,images/fiveSmallred_300.jpg,heavy,To which boxes is Pip referring to?,distributive,inspect,bare,Sun Jul 26 2020 17:06:34 GMT+0800 (+08),1595754394997,1.4992,image_selection_pip,6
1852,"This is what Pip tells Jim:<br /><br /><span style='font-size:150%'><strong>""The boxes were tall.""</strong></span>",1795,23,I missed the second instruction page due to lag :( Might be better to omit my entry,University degree (Bachelor),1595754484949,166,male,"English, Mandarin",collective,distributive,images/fiveSmallred_300.jpg,images/twoBigblue_300.jpg,tall,To which boxes is Pip referring to?,distributive,inspect,bare,Sun Jul 26 2020 17:06:34 GMT+0800 (+08),1595754394997,1.4992,image_selection_pip,7
1852,"This is what Pip tells Jim:<br /><br /><span style='font-size:150%'><strong>""The boxes together were tall.""</strong></span>",2008,23,I missed the second instruction page due to lag :( Might be better to omit my entry,University degree (Bachelor),1595754484949,166,male,"English, Mandarin",collective,distributive,images/fiveSmallred_300.jpg,images/twoBigblue_300.jpg,tall,To which boxes is Pip referring to?,distributive,inspect,together,Sun Jul 26 2020 17:06:34 GMT+0800 (+08),1595754394997,1.4992,image_selection_pip,8
