submission_id,trial_number,scenario,predicate,sentence_frame,RT,response
1919,1,inspect,big,bare,6150,distributive
1919,2,inspect,tall,together,4159,collective
1919,3,inspect,tall,each,4597,distributive
1919,4,inspect,heavy,each,10756,distributive
1919,5,inspect,big,together,6622,distributive
1919,6,inspect,big,each,6034,distributive
1919,7,inspect,heavy,together,3188,collective
1919,8,inspect,tall,bare,2549,collective
1919,9,inspect,heavy,bare,2918,collective
1915,1,move,heavy,together,12716,collective
1915,2,move,heavy,bare,4190,distributive
1915,3,move,tall,each,8190,distributive
1915,4,move,heavy,each,3178,distributive
1915,5,move,big,each,4660,distributive
1915,6,move,big,together,2582,collective
1915,7,move,tall,together,3298,collective
1915,8,move,big,bare,2381,distributive
1915,9,move,tall,bare,2814,distributive
1905,1,inspect,tall,together,10278,collective
1905,2,inspect,heavy,together,6953,collective
1905,3,inspect,heavy,each,3341,distributive
1905,4,inspect,tall,each,3112,distributive
1905,5,inspect,big,each,2112,distributive
1905,6,inspect,heavy,bare,8725,distributive
1905,7,inspect,tall,bare,2297,distributive
1905,8,inspect,big,bare,2558,distributive
1905,9,inspect,big,together,5910,distributive
1896,1,inspect,big,together,11012,distributive
1896,2,inspect,heavy,each,3756,distributive
1896,3,inspect,big,each,1970,distributive
1896,4,inspect,big,bare,3062,distributive
1896,5,inspect,heavy,bare,3416,collective
1896,6,inspect,heavy,together,1696,collective
1896,7,inspect,tall,bare,1349,distributive
1896,8,inspect,tall,each,3339,distributive
1896,9,inspect,tall,together,1733,collective
1892,1,inspect,big,bare,23405,collective
1892,2,inspect,big,together,1988,collective
1892,3,inspect,heavy,together,3978,collective
1892,4,inspect,tall,each,8411,distributive
1892,5,inspect,tall,together,2784,collective
1892,6,inspect,big,each,7751,distributive
1892,7,inspect,tall,bare,3532,distributive
1892,8,inspect,heavy,each,2646,distributive
1892,9,inspect,heavy,bare,1691,distributive
1888,1,move,tall,together,14492,distributive
1888,2,move,big,together,7860,collective
1888,3,move,heavy,bare,37235,distributive
1888,4,move,big,bare,5123,distributive
1888,5,move,big,each,4381,distributive
1888,6,move,tall,bare,12299,collective
1888,7,move,tall,each,1444,distributive
1888,8,move,heavy,each,6069,distributive
1888,9,move,heavy,together,2232,collective
1885,1,inspect,big,bare,3210,distributive
1885,2,inspect,tall,each,5500,distributive
1885,3,inspect,big,each,2894,distributive
1885,4,inspect,heavy,each,8406,distributive
1885,5,inspect,heavy,together,2526,collective
1885,6,inspect,big,together,3680,collective
1885,7,inspect,tall,bare,2921,distributive
1885,8,inspect,tall,together,2417,collective
1885,9,inspect,heavy,bare,2697,distributive
1880,1,inspect,big,together,2923,collective
1880,2,inspect,tall,bare,3959,collective
1880,3,inspect,big,each,4051,distributive
1880,4,inspect,tall,together,3087,collective
1880,5,inspect,heavy,each,4067,distributive
1880,6,inspect,heavy,bare,3297,collective
1880,7,inspect,big,bare,2535,distributive
1880,8,inspect,heavy,together,2145,collective
1880,9,inspect,tall,each,2414,distributive
1878,1,move,heavy,bare,61552,distributive
1878,2,move,tall,bare,7612,distributive
1878,3,move,tall,together,2702,collective
1878,4,move,big,each,3076,distributive
1878,5,move,big,bare,2659,distributive
1878,6,move,heavy,each,2959,distributive
1878,7,move,big,together,2816,collective
1878,8,move,tall,each,2182,distributive
1878,9,move,heavy,together,4683,collective
1874,1,inspect,heavy,together,28706,collective
1874,2,inspect,heavy,bare,5057,distributive
1874,3,inspect,tall,together,5520,collective
1874,4,inspect,heavy,each,3096,distributive
1874,5,inspect,big,each,1733,distributive
1874,6,inspect,big,together,3147,collective
1874,7,inspect,tall,bare,2099,distributive
1874,8,inspect,tall,each,1752,distributive
1874,9,inspect,big,bare,3921,distributive
1872,1,inspect,tall,each,19452,collective
1872,2,inspect,tall,bare,4875,distributive
1872,3,inspect,heavy,together,2975,collective
1872,4,inspect,heavy,bare,6519,collective
1872,5,inspect,big,together,2045,collective
1872,6,inspect,big,each,1698,distributive
1872,7,inspect,heavy,each,2679,distributive
1872,8,inspect,big,bare,2422,distributive
1872,9,inspect,tall,together,2558,collective
1870,1,inspect,big,each,14948,distributive
1870,2,inspect,tall,each,7164,distributive
1870,3,inspect,big,together,2679,collective
1870,4,inspect,heavy,together,7115,collective
1870,5,inspect,tall,bare,4219,distributive
1870,6,inspect,heavy,each,3243,distributive
1870,7,inspect,heavy,bare,10401,distributive
1870,8,inspect,tall,together,3082,collective
1870,9,inspect,big,bare,3228,distributive
1869,1,inspect,tall,together,4260,collective
1869,2,inspect,tall,each,14414,collective
1869,3,inspect,tall,bare,2753,collective
1869,4,inspect,heavy,bare,2925,distributive
1869,5,inspect,heavy,together,3279,distributive
1869,6,inspect,big,together,7223,collective
1869,7,inspect,big,bare,1691,collective
1869,8,inspect,heavy,each,2314,distributive
1869,9,inspect,big,each,3815,distributive
1867,1,inspect,tall,each,5479,distributive
1867,2,inspect,heavy,bare,14099,distributive
1867,3,inspect,heavy,each,6264,distributive
1867,4,inspect,big,together,3281,collective
1867,5,inspect,big,bare,1866,distributive
1867,6,inspect,tall,bare,2880,distributive
1867,7,inspect,big,each,2916,distributive
1867,8,inspect,heavy,together,5180,collective
1867,9,inspect,tall,together,2366,collective
1866,1,move,heavy,together,15676,collective
1866,2,move,tall,each,3645,distributive
1866,3,move,big,each,1937,distributive
1866,4,move,tall,together,3461,collective
1866,5,move,big,together,4026,collective
1866,6,move,big,bare,1880,distributive
1866,7,move,tall,bare,1687,distributive
1866,8,move,heavy,each,2717,distributive
1866,9,move,heavy,bare,5688,collective
1865,1,move,big,each,3456,distributive
1865,2,move,heavy,bare,4100,distributive
1865,3,move,tall,each,1828,distributive
1865,4,move,tall,together,2167,collective
1865,5,move,big,together,4289,collective
1865,6,move,big,bare,1692,distributive
1865,7,move,heavy,together,4392,collective
1865,8,move,heavy,each,2600,distributive
1865,9,move,tall,bare,1794,collective
1862,1,move,big,bare,6480,distributive
1862,2,move,heavy,together,16784,distributive
1862,3,move,heavy,each,3931,distributive
1862,4,move,tall,together,3742,collective
1862,5,move,big,each,8980,distributive
1862,6,move,tall,each,4956,distributive
1862,7,move,heavy,bare,6374,distributive
1862,8,move,tall,bare,4273,distributive
1862,9,move,big,together,5306,collective
1861,1,inspect,tall,each,14640,distributive
1861,2,inspect,big,bare,6295,distributive
1861,3,inspect,big,each,3978,distributive
1861,4,inspect,heavy,bare,7728,distributive
1861,5,inspect,heavy,each,1840,distributive
1861,6,inspect,heavy,together,5717,collective
1861,7,inspect,tall,together,2702,collective
1861,8,inspect,big,together,1543,collective
1861,9,inspect,tall,bare,4032,distributive
1860,1,move,heavy,each,4350,distributive
1860,2,move,tall,each,7968,distributive
1860,3,move,heavy,bare,5178,distributive
1860,4,move,big,bare,2389,distributive
1860,5,move,tall,bare,1354,distributive
1860,6,move,big,each,2407,distributive
1860,7,move,tall,together,1833,distributive
1860,8,move,big,together,3483,collective
1860,9,move,heavy,together,1840,collective
1858,1,inspect,tall,each,14522,distributive
1858,2,inspect,tall,together,12923,collective
1858,3,inspect,heavy,bare,13645,collective
1858,4,inspect,big,together,6380,distributive
1858,5,inspect,big,bare,2734,distributive
1858,6,inspect,tall,bare,2078,distributive
1858,7,inspect,heavy,each,3782,distributive
1858,8,inspect,heavy,together,2864,collective
1858,9,inspect,big,each,4007,distributive
1857,1,inspect,tall,each,5398,distributive
1857,2,inspect,tall,bare,4177,distributive
1857,3,inspect,big,together,3565,collective
1857,4,inspect,tall,together,2440,collective
1857,5,inspect,heavy,each,5949,distributive
1857,6,inspect,big,bare,1968,distributive
1857,7,inspect,big,each,2201,distributive
1857,8,inspect,heavy,together,2762,collective
1857,9,inspect,heavy,bare,4776,collective
1854,1,move,heavy,together,8913,collective
1854,2,move,heavy,bare,6972,collective
1854,3,move,tall,each,3015,collective
1854,4,move,tall,bare,3700,collective
1854,5,move,big,together,6426,collective
1854,6,move,tall,together,2201,collective
1854,7,move,big,bare,7028,collective
1854,8,move,big,each,2215,collective
1854,9,move,heavy,each,2014,collective
1852,1,inspect,heavy,each,4424,collective
1852,2,inspect,big,together,5906,distributive
1852,3,inspect,tall,each,2268,distributive
1852,4,inspect,big,bare,2438,distributive
1852,5,inspect,big,each,2439,distributive
1852,6,inspect,heavy,bare,3916,distributive
1852,7,inspect,tall,bare,1795,distributive
1852,8,inspect,tall,together,2008,distributive
1852,9,inspect,heavy,together,2633,collective
1851,1,inspect,heavy,each,15385,distributive
1851,2,inspect,big,each,8223,collective
1851,3,inspect,big,bare,4967,distributive
1851,4,inspect,heavy,bare,7898,distributive
1851,5,inspect,tall,each,9864,distributive
1851,6,inspect,big,together,4516,collective
1851,7,inspect,tall,bare,4166,distributive
1851,8,inspect,heavy,together,5927,collective
1851,9,inspect,tall,together,3602,collective
1848,1,inspect,heavy,each,38136,distributive
1848,2,inspect,big,bare,6457,distributive
1848,3,inspect,heavy,bare,20050,distributive
1848,4,inspect,big,together,3622,collective
1848,5,inspect,heavy,together,16753,collective
1848,6,inspect,tall,bare,3089,distributive
1848,7,inspect,tall,together,1513,collective
1848,8,inspect,tall,each,4499,distributive
1848,9,inspect,big,each,5036,distributive
1847,1,inspect,big,together,5558,collective
1847,2,inspect,tall,bare,3259,distributive
1847,3,inspect,heavy,each,11392,collective
1847,4,inspect,heavy,bare,12528,distributive
1847,5,inspect,tall,each,2195,distributive
1847,6,inspect,big,each,1970,distributive
1847,7,inspect,heavy,together,5210,collective
1847,8,inspect,tall,together,1774,collective
1847,9,inspect,big,bare,1962,distributive
1845,1,move,big,bare,8826,distributive
1845,2,move,big,together,4810,distributive
1845,3,move,heavy,each,13513,distributive
1845,4,move,tall,each,3379,distributive
1845,5,move,heavy,together,5540,distributive
1845,6,move,heavy,bare,2484,distributive
1845,7,move,big,each,4818,distributive
1845,8,move,tall,bare,2352,distributive
1845,9,move,tall,together,3294,collective
1844,1,move,big,each,5354,distributive
1844,2,move,big,together,5029,collective
1844,3,move,tall,each,3112,distributive
1844,4,move,heavy,bare,4316,distributive
1844,5,move,heavy,together,4817,distributive
1844,6,move,tall,bare,3694,collective
1844,7,move,tall,together,2205,collective
1844,8,move,big,bare,4347,distributive
1844,9,move,heavy,each,4311,distributive
1843,1,inspect,tall,each,6718,collective
1843,2,inspect,tall,together,5823,collective
1843,3,inspect,big,each,4553,distributive
1843,4,inspect,heavy,together,3193,collective
1843,5,inspect,big,bare,4383,distributive
1843,6,inspect,heavy,bare,4136,distributive
1843,7,inspect,big,together,2447,collective
1843,8,inspect,heavy,each,2065,distributive
1843,9,inspect,tall,bare,5412,distributive
1842,1,inspect,tall,each,10467,distributive
1842,2,inspect,heavy,each,6959,distributive
1842,3,inspect,heavy,together,7795,distributive
1842,4,inspect,big,together,2889,collective
1842,5,inspect,tall,bare,5090,distributive
1842,6,inspect,big,bare,3499,distributive
1842,7,inspect,tall,together,2444,collective
1842,8,inspect,heavy,bare,3300,distributive
1842,9,inspect,big,each,5313,distributive
1841,1,move,big,bare,5170,distributive
1841,2,move,heavy,bare,3928,distributive
1841,3,move,tall,each,3040,distributive
1841,4,move,tall,bare,3910,distributive
1841,5,move,tall,together,2733,collective
1841,6,move,big,together,3159,collective
1841,7,move,big,each,2822,distributive
1841,8,move,heavy,together,4911,collective
1841,9,move,heavy,each,4080,distributive
1840,1,inspect,big,each,7688,distributive
1840,2,inspect,big,together,2595,distributive
1840,3,inspect,heavy,bare,7710,distributive
1840,4,inspect,heavy,together,5940,collective
1840,5,inspect,heavy,each,2124,distributive
1840,6,inspect,big,bare,3009,distributive
1840,7,inspect,tall,together,2987,collective
1840,8,inspect,tall,bare,1809,distributive
1840,9,inspect,tall,each,2620,distributive
1839,1,inspect,tall,each,4760,distributive
1839,2,inspect,heavy,each,2869,collective
1839,3,inspect,big,bare,3000,distributive
1839,4,inspect,heavy,together,2199,collective
1839,5,inspect,tall,bare,4199,distributive
1839,6,inspect,heavy,bare,2614,collective
1839,7,inspect,big,together,3512,collective
1839,8,inspect,big,each,1496,distributive
1839,9,inspect,tall,together,1072,collective
1838,1,inspect,heavy,bare,6106,collective
1838,2,inspect,big,together,3928,collective
1838,3,inspect,tall,each,1013,collective
1838,4,inspect,big,each,3116,distributive
1838,5,inspect,tall,bare,2264,distributive
1838,6,inspect,big,bare,1745,distributive
1838,7,inspect,heavy,each,4147,distributive
1838,8,inspect,tall,together,3098,collective
1838,9,inspect,heavy,together,2205,collective
1837,1,move,heavy,together,5070,distributive
1837,2,move,tall,bare,2851,collective
1837,3,move,heavy,bare,3036,distributive
1837,4,move,big,each,4933,collective
1837,5,move,heavy,each,2277,distributive
1837,6,move,tall,each,2297,collective
1837,7,move,big,together,2315,collective
1837,8,move,tall,together,1949,collective
1837,9,move,big,bare,1814,collective
1836,1,inspect,big,each,7098,distributive
1836,2,inspect,big,bare,11721,distributive
1836,3,inspect,heavy,bare,8605,distributive
1836,4,inspect,heavy,each,2684,distributive
1836,5,inspect,tall,each,3650,distributive
1836,6,inspect,tall,together,2640,collective
1836,7,inspect,heavy,together,2197,collective
1836,8,inspect,tall,bare,3260,collective
1836,9,inspect,big,together,2845,collective
1835,1,inspect,big,together,7870,collective
1835,2,inspect,heavy,bare,2970,distributive
1835,3,inspect,heavy,each,3507,distributive
1835,4,inspect,heavy,together,3999,distributive
1835,5,inspect,tall,together,2053,collective
1835,6,inspect,tall,each,4229,collective
1835,7,inspect,tall,bare,1911,collective
1835,8,inspect,big,bare,2100,collective
1835,9,inspect,big,each,1747,collective
1834,1,move,big,bare,3502,collective
1834,2,move,heavy,bare,1239,collective
1834,3,move,big,each,1087,collective
1834,4,move,big,together,1209,collective
1834,5,move,tall,together,784,collective
1834,6,move,heavy,together,2107,distributive
1834,7,move,heavy,each,2031,collective
1834,8,move,tall,bare,999,collective
1834,9,move,tall,each,2542,collective
1833,1,inspect,tall,bare,9632,distributive
1833,2,inspect,heavy,bare,14152,distributive
1833,3,inspect,heavy,together,9114,collective
1833,4,inspect,heavy,each,2201,distributive
1833,5,inspect,big,bare,3896,distributive
1833,6,inspect,big,together,1686,collective
1833,7,inspect,big,each,2350,distributive
1833,8,inspect,tall,each,2512,distributive
1833,9,inspect,tall,together,2412,collective
1832,1,inspect,heavy,together,17561,collective
1832,2,inspect,big,each,3240,distributive
1832,3,inspect,big,together,2492,collective
1832,4,inspect,tall,together,1763,collective
1832,5,inspect,big,bare,1681,distributive
1832,6,inspect,heavy,each,3913,collective
1832,7,inspect,tall,each,1889,collective
1832,8,inspect,tall,bare,2709,collective
1832,9,inspect,heavy,bare,2829,collective
1831,1,move,heavy,each,7400,distributive
1831,2,move,heavy,together,9060,collective
1831,3,move,heavy,bare,3815,collective
1831,4,move,tall,each,1894,distributive
1831,5,move,big,bare,2105,distributive
1831,6,move,tall,bare,1204,distributive
1831,7,move,big,each,1958,distributive
1831,8,move,big,together,2415,collective
1831,9,move,tall,together,1818,collective
1830,1,move,tall,bare,5882,distributive
1830,2,move,big,bare,5804,distributive
1830,3,move,tall,together,7307,collective
1830,4,move,big,together,14813,collective
1830,5,move,heavy,each,8282,distributive
1830,6,move,tall,each,2316,distributive
1830,7,move,heavy,together,6093,collective
1830,8,move,big,each,4649,distributive
1830,9,move,heavy,bare,12964,collective
1829,1,inspect,tall,together,10119,collective
1829,2,inspect,big,each,8243,collective
1829,3,inspect,big,together,4693,collective
1829,4,inspect,tall,bare,7329,distributive
1829,5,inspect,heavy,each,8422,distributive
1829,6,inspect,tall,each,3229,collective
1829,7,inspect,big,bare,3312,collective
1829,8,inspect,heavy,bare,5980,distributive
1829,9,inspect,heavy,together,3306,distributive
1828,1,move,big,together,10075,distributive
1828,2,move,big,bare,2971,distributive
1828,3,move,big,each,3592,distributive
1828,4,move,heavy,each,8291,distributive
1828,5,move,tall,each,2551,distributive
1828,6,move,tall,together,3192,collective
1828,7,move,tall,bare,2518,distributive
1828,8,move,heavy,bare,2231,distributive
1828,9,move,heavy,together,2823,collective
1827,1,inspect,tall,each,4728,collective
1827,2,inspect,big,each,4393,distributive
1827,3,inspect,big,bare,4255,distributive
1827,4,inspect,big,together,2719,collective
1827,5,inspect,heavy,together,3903,collective
1827,6,inspect,heavy,each,2383,distributive
1827,7,inspect,tall,bare,2588,distributive
1827,8,inspect,tall,together,1878,collective
1827,9,inspect,heavy,bare,4261,distributive
1826,1,inspect,tall,together,18821,distributive
1826,2,inspect,heavy,together,15510,collective
1826,3,inspect,tall,bare,5214,collective
1826,4,inspect,heavy,bare,6272,distributive
1826,5,inspect,big,bare,3219,distributive
1826,6,inspect,big,each,4865,distributive
1826,7,inspect,tall,each,2302,distributive
1826,8,inspect,heavy,each,3252,distributive
1826,9,inspect,big,together,3330,collective
1825,1,inspect,big,each,5222,distributive
1825,2,inspect,tall,bare,3911,distributive
1825,3,inspect,tall,each,2802,distributive
1825,4,inspect,tall,together,1525,collective
1825,5,inspect,heavy,each,6483,collective
1825,6,inspect,heavy,together,6729,distributive
1825,7,inspect,big,bare,3878,distributive
1825,8,inspect,big,together,2533,collective
1825,9,inspect,heavy,bare,4990,distributive
1824,1,move,tall,together,10658,collective
1824,2,move,heavy,bare,13767,distributive
1824,3,move,heavy,each,5469,distributive
1824,4,move,tall,bare,6962,collective
1824,5,move,big,bare,2136,distributive
1824,6,move,heavy,together,13404,collective
1824,7,move,big,each,2732,distributive
1824,8,move,tall,each,2732,distributive
1824,9,move,big,together,5952,collective
1823,1,inspect,big,bare,3845,distributive
1823,2,inspect,tall,bare,2317,distributive
1823,3,inspect,big,together,3125,collective
1823,4,inspect,tall,together,1875,collective
1823,5,inspect,tall,each,3343,distributive
1823,6,inspect,heavy,bare,3149,distributive
1823,7,inspect,big,each,3149,distributive
1823,8,inspect,heavy,together,2380,distributive
1823,9,inspect,heavy,each,3077,distributive
1822,1,inspect,big,together,5628,distributive
1822,2,inspect,heavy,together,8594,collective
1822,3,inspect,tall,together,4099,collective
1822,4,inspect,tall,each,2440,distributive
1822,5,inspect,tall,bare,6089,distributive
1822,6,inspect,heavy,each,2615,distributive
1822,7,inspect,big,bare,2457,distributive
1822,8,inspect,big,each,2239,distributive
1822,9,inspect,heavy,bare,2080,distributive
1821,1,move,heavy,together,14215,distributive
1821,2,move,heavy,bare,3712,distributive
1821,3,move,big,each,1947,distributive
1821,4,move,heavy,each,2718,distributive
1821,5,move,big,together,2783,distributive
1821,6,move,tall,each,3549,distributive
1821,7,move,tall,bare,1732,collective
1821,8,move,tall,together,2098,collective
1821,9,move,big,bare,1983,distributive
1819,1,inspect,big,together,10418,collective
1819,2,inspect,big,each,1945,distributive
1819,3,inspect,big,bare,2872,distributive
1819,4,inspect,heavy,each,6347,distributive
1819,5,inspect,tall,together,1464,collective
1819,6,inspect,tall,each,1708,distributive
1819,7,inspect,heavy,together,1693,collective
1819,8,inspect,heavy,bare,3130,distributive
1819,9,inspect,tall,bare,1600,distributive
1818,1,inspect,tall,together,13681,collective
1818,2,inspect,heavy,together,8785,distributive
1818,3,inspect,big,together,5637,distributive
1818,4,inspect,heavy,each,3021,distributive
1818,5,inspect,tall,each,1875,distributive
1818,6,inspect,big,bare,2762,distributive
1818,7,inspect,tall,bare,1608,collective
1818,8,inspect,big,each,2224,distributive
1818,9,inspect,heavy,bare,3084,distributive
1817,1,inspect,heavy,bare,10449,collective
1817,2,inspect,big,each,2693,collective
1817,3,inspect,tall,each,2638,collective
1817,4,inspect,tall,together,2086,collective
1817,5,inspect,heavy,together,4823,collective
1817,6,inspect,tall,bare,2158,collective
1817,7,inspect,big,together,2182,collective
1817,8,inspect,big,bare,942,collective
1817,9,inspect,heavy,each,3038,collective
1816,1,move,heavy,each,11220,distributive
1816,2,move,big,together,3861,collective
1816,3,move,heavy,bare,3941,distributive
1816,4,move,tall,each,3067,collective
1816,5,move,heavy,together,5385,distributive
1816,6,move,tall,bare,2158,collective
1816,7,move,big,bare,2395,distributive
1816,8,move,big,each,3331,distributive
1816,9,move,tall,together,3868,collective
1815,1,move,tall,each,6394,distributive
1815,2,move,big,bare,9840,distributive
1815,3,move,heavy,bare,10401,distributive
1815,4,move,tall,together,3017,collective
1815,5,move,big,each,3847,distributive
1815,6,move,big,together,7579,collective
1815,7,move,heavy,together,3977,collective
1815,8,move,heavy,each,2043,distributive
1815,9,move,tall,bare,3996,distributive
1814,1,inspect,big,each,14359,collective
1814,2,inspect,heavy,together,12493,collective
1814,3,inspect,heavy,bare,4791,collective
1814,4,inspect,tall,each,3306,collective
1814,5,inspect,big,together,2131,collective
1814,6,inspect,heavy,each,2180,collective
1814,7,inspect,tall,together,3108,collective
1814,8,inspect,tall,bare,2552,collective
1814,9,inspect,big,bare,1350,collective
1813,1,inspect,big,together,5674,collective
1813,2,inspect,tall,together,4264,collective
1813,3,inspect,big,each,2379,distributive
1813,4,inspect,heavy,each,6253,distributive
1813,5,inspect,big,bare,5162,distributive
1813,6,inspect,tall,bare,4497,collective
1813,7,inspect,tall,each,1796,distributive
1813,8,inspect,heavy,together,2815,distributive
1813,9,inspect,heavy,bare,5833,distributive
1812,1,inspect,heavy,bare,13348,collective
1812,2,inspect,big,together,12919,collective
1812,3,inspect,big,each,2618,distributive
1812,4,inspect,heavy,each,3842,distributive
1812,5,inspect,big,bare,2865,distributive
1812,6,inspect,tall,each,2487,distributive
1812,7,inspect,heavy,together,3518,collective
1812,8,inspect,tall,bare,2024,distributive
1812,9,inspect,tall,together,2993,collective
1811,1,move,tall,together,9293,collective
1811,2,move,big,bare,3947,distributive
1811,3,move,big,each,3870,distributive
1811,4,move,heavy,bare,4141,distributive
1811,5,move,tall,bare,5997,distributive
1811,6,move,tall,each,3679,distributive
1811,7,move,heavy,each,5685,distributive
1811,8,move,big,together,4549,collective
1811,9,move,heavy,together,4646,collective
1810,1,move,heavy,together,5940,collective
1810,2,move,heavy,each,4656,distributive
1810,3,move,tall,bare,3858,collective
1810,4,move,tall,together,6895,distributive
1810,5,move,big,bare,2891,distributive
1810,6,move,tall,each,2745,distributive
1810,7,move,big,together,3667,collective
1810,8,move,big,each,3667,distributive
1810,9,move,heavy,bare,5692,collective
1809,1,inspect,heavy,bare,21322,distributive
1809,2,inspect,heavy,together,17666,collective
1809,3,inspect,tall,together,9844,distributive
1809,4,inspect,heavy,each,7499,collective
1809,5,inspect,tall,bare,14531,distributive
1809,6,inspect,big,bare,5061,collective
1809,7,inspect,tall,each,5835,distributive
1809,8,inspect,big,each,4880,distributive
1809,9,inspect,big,together,5760,distributive
1808,1,inspect,heavy,bare,11933,collective
1808,2,inspect,big,bare,2314,distributive
1808,3,inspect,heavy,each,7931,distributive
1808,4,inspect,big,each,2303,distributive
1808,5,inspect,big,together,5368,distributive
1808,6,inspect,tall,bare,1605,distributive
1808,7,inspect,tall,together,1100,distributive
1808,8,inspect,heavy,together,4649,collective
1808,9,inspect,tall,each,3207,distributive
1807,1,inspect,big,bare,5236,distributive
1807,2,inspect,tall,each,2380,collective
1807,3,inspect,heavy,each,3497,distributive
1807,4,inspect,heavy,together,2426,collective
1807,5,inspect,tall,bare,3856,collective
1807,6,inspect,big,together,2646,collective
1807,7,inspect,big,each,2034,distributive
1807,8,inspect,heavy,bare,1880,distributive
1807,9,inspect,tall,together,2759,collective
1806,1,inspect,tall,bare,23017,distributive
1806,2,inspect,big,each,2448,distributive
1806,3,inspect,heavy,each,19036,collective
1806,4,inspect,heavy,bare,29626,collective
1806,5,inspect,big,together,3581,collective
1806,6,inspect,tall,each,2060,distributive
1806,7,inspect,heavy,together,9793,collective
1806,8,inspect,big,bare,2748,distributive
1806,9,inspect,tall,together,3192,collective
1804,1,move,heavy,bare,16426,distributive
1804,2,move,big,together,5678,collective
1804,3,move,big,each,7225,collective
1804,4,move,tall,each,6505,distributive
1804,5,move,heavy,each,5427,distributive
1804,6,move,tall,together,2566,collective
1804,7,move,heavy,together,3808,collective
1804,8,move,big,bare,4569,distributive
1804,9,move,tall,bare,3066,distributive
1803,1,move,big,together,19869,distributive
1803,2,move,big,bare,5006,distributive
1803,3,move,heavy,together,25988,distributive
1803,4,move,tall,together,4828,collective
1803,5,move,heavy,each,3620,distributive
1803,6,move,heavy,bare,2333,distributive
1803,7,move,big,each,2816,distributive
1803,8,move,tall,each,3460,distributive
1803,9,move,tall,bare,3708,distributive
1801,1,inspect,heavy,bare,19647,distributive
1801,2,inspect,big,each,2679,distributive
1801,3,inspect,big,bare,1990,distributive
1801,4,inspect,big,together,4350,collective
1801,5,inspect,tall,together,1534,collective
1801,6,inspect,heavy,together,1837,collective
1801,7,inspect,tall,each,5014,distributive
1801,8,inspect,tall,bare,2220,collective
1801,9,inspect,heavy,each,2607,distributive
1800,1,move,heavy,together,7347,collective
1800,2,move,heavy,each,8394,distributive
1800,3,move,big,together,2477,collective
1800,4,move,tall,together,2330,collective
1800,5,move,heavy,bare,2622,collective
1800,6,move,big,each,3631,distributive
1800,7,move,tall,bare,2198,distributive
1800,8,move,tall,each,2720,distributive
1800,9,move,big,bare,1949,distributive
1799,1,inspect,heavy,together,13816,distributive
1799,2,inspect,tall,each,4444,distributive
1799,3,inspect,tall,together,2335,collective
1799,4,inspect,tall,bare,2848,distributive
1799,5,inspect,big,bare,3826,distributive
1799,6,inspect,heavy,each,4174,distributive
1799,7,inspect,big,each,4574,distributive
1799,8,inspect,heavy,bare,3173,distributive
1799,9,inspect,big,together,5767,collective
1798,1,move,heavy,each,13894,distributive
1798,2,move,big,bare,4499,distributive
1798,3,move,heavy,bare,8413,collective
1798,4,move,tall,bare,2664,distributive
1798,5,move,tall,each,3281,distributive
1798,6,move,big,together,2894,collective
1798,7,move,heavy,together,2584,collective
1798,8,move,big,each,2664,distributive
1798,9,move,tall,together,2089,collective
1797,1,move,tall,bare,4636,collective
1797,2,move,heavy,each,9571,distributive
1797,3,move,big,together,3966,distributive
1797,4,move,big,bare,9971,collective
1797,5,move,tall,each,7793,distributive
1797,6,move,tall,together,1986,collective
1797,7,move,heavy,bare,9137,collective
1797,8,move,big,each,2580,distributive
1797,9,move,heavy,together,3549,collective
1795,1,move,heavy,each,11728,distributive
1795,2,move,tall,each,4494,distributive
1795,3,move,heavy,together,5542,collective
1795,4,move,big,bare,4025,distributive
1795,5,move,big,together,2639,collective
1795,6,move,heavy,bare,5209,distributive
1795,7,move,tall,bare,3838,distributive
1795,8,move,tall,together,3584,collective
1795,9,move,big,each,4608,distributive
1792,1,inspect,heavy,bare,8929,distributive
1792,2,inspect,tall,together,4369,distributive
1792,3,inspect,tall,each,4338,distributive
1792,4,inspect,heavy,together,12084,collective
1792,5,inspect,big,each,2953,distributive
1792,6,inspect,heavy,each,4060,distributive
1792,7,inspect,big,together,5027,collective
1792,8,inspect,big,bare,2495,distributive
1791,1,move,tall,each,5075,distributive
1791,2,move,big,together,4757,collective
1791,3,move,big,bare,2104,distributive
1791,4,move,tall,bare,1528,distributive
1791,5,move,big,each,7248,collective
1791,6,move,heavy,each,9437,distributive
1791,7,move,heavy,together,2728,collective
1791,8,move,tall,together,2232,collective
1791,9,move,heavy,bare,2315,distributive
1790,1,inspect,tall,each,4428,distributive
1790,2,inspect,big,together,2586,distributive
1790,3,inspect,heavy,together,5004,distributive
1790,4,inspect,tall,together,3210,distributive
1790,5,inspect,heavy,bare,7162,distributive
1790,6,inspect,heavy,each,11539,distributive
1790,7,inspect,tall,bare,7188,distributive
1790,8,inspect,big,each,3108,distributive
1790,9,inspect,big,bare,2664,distributive
1789,1,inspect,tall,together,5261,collective
1789,2,inspect,big,bare,6332,distributive
1789,3,inspect,big,together,3016,collective
1789,4,inspect,tall,bare,4865,distributive
1789,5,inspect,tall,each,2215,distributive
1789,6,inspect,heavy,each,5801,distributive
1789,7,inspect,heavy,bare,3595,distributive
1789,8,inspect,big,each,6120,distributive
1789,9,inspect,heavy,together,6961,collective
1788,1,move,big,bare,13884,collective
1788,2,move,heavy,each,15578,distributive
1788,3,move,tall,bare,4746,collective
1788,4,move,heavy,together,12793,collective
1788,5,move,big,together,9829,collective
1788,6,move,tall,together,2795,collective
1788,7,move,big,each,5141,collective
1788,8,move,tall,each,7259,collective
1788,9,move,heavy,bare,11362,distributive
1787,1,move,heavy,each,4651,collective
1787,2,move,big,each,3853,distributive
1787,3,move,big,bare,2932,distributive
1787,4,move,tall,together,1970,collective
1787,5,move,tall,each,1690,distributive
1787,6,move,tall,bare,2336,distributive
1787,7,move,heavy,together,4678,collective
1787,8,move,heavy,bare,2221,collective
1787,9,move,big,together,1858,collective
1786,1,move,tall,each,10163,distributive
1786,2,move,tall,together,4911,collective
1786,3,move,big,bare,5406,distributive
1786,4,move,heavy,each,10131,distributive
1786,5,move,big,each,3352,distributive
1786,6,move,tall,bare,2706,distributive
1786,7,move,big,together,3871,collective
1786,8,move,heavy,together,3706,collective
1786,9,move,heavy,bare,6714,distributive
1785,1,move,big,each,15931,distributive
1785,2,move,tall,bare,3044,distributive
1785,3,move,heavy,together,20498,collective
1785,4,move,big,bare,3295,distributive
1785,5,move,tall,together,7873,collective
1785,6,move,heavy,bare,15506,distributive
1785,7,move,heavy,each,3558,collective
1785,8,move,big,together,2596,distributive
1785,9,move,tall,each,1740,collective
1784,1,move,big,each,11431,distributive
1784,2,move,heavy,each,7731,collective
1784,3,move,heavy,together,3179,collective
1784,4,move,big,bare,1932,distributive
1784,5,move,big,together,1728,collective
1784,6,move,tall,bare,1852,distributive
1784,7,move,tall,together,1618,collective
1784,8,move,tall,each,2280,distributive
1784,9,move,heavy,bare,6597,collective
1783,1,move,tall,together,9654,collective
1783,2,move,heavy,bare,10403,collective
1783,3,move,tall,bare,2812,collective
1783,4,move,big,bare,2556,distributive
1783,5,move,heavy,together,4144,collective
1783,6,move,big,together,3101,collective
1783,7,move,heavy,each,3548,distributive
1783,8,move,tall,each,1871,distributive
1783,9,move,big,each,1549,distributive
1782,1,move,tall,together,12113,collective
1782,2,move,big,together,3990,distributive
1782,3,move,big,bare,2991,distributive
1782,4,move,heavy,bare,7835,collective
1782,5,move,big,each,5157,distributive
1782,6,move,tall,bare,2403,distributive
1782,7,move,tall,each,3481,distributive
1782,8,move,heavy,together,4630,collective
1782,9,move,heavy,each,3429,distributive
1781,1,inspect,big,together,8239,collective
1781,2,inspect,tall,each,2580,distributive
1781,3,inspect,tall,together,2229,collective
1781,4,inspect,big,each,2361,distributive
1781,5,inspect,tall,bare,3168,collective
1781,6,inspect,big,bare,3067,distributive
1781,7,inspect,heavy,bare,5575,distributive
1781,8,inspect,heavy,together,1826,collective
1781,9,inspect,heavy,each,1921,distributive
1780,1,move,big,together,15005,distributive
1780,2,move,heavy,each,3697,distributive
1780,3,move,big,each,6791,distributive
1780,4,move,tall,each,2227,distributive
1780,5,move,tall,bare,2000,distributive
1780,6,move,heavy,together,2531,collective
1780,7,move,big,bare,1506,collective
1780,8,move,tall,together,1947,collective
1780,9,move,heavy,bare,512,distributive
1779,1,inspect,big,together,12826,collective
1779,2,inspect,big,each,3511,distributive
1779,3,inspect,tall,each,2599,distributive
1779,4,inspect,heavy,each,3564,collective
1779,5,inspect,tall,bare,4016,distributive
1779,6,inspect,tall,together,4181,collective
1779,7,inspect,heavy,together,2131,collective
1779,8,inspect,heavy,bare,1898,distributive
1779,9,inspect,big,bare,2247,distributive
1778,1,move,heavy,together,20145,distributive
1778,2,move,heavy,bare,7680,collective
1778,3,move,tall,each,3823,distributive
1778,4,move,tall,together,2467,collective
1778,5,move,big,together,5145,distributive
1778,6,move,heavy,each,5224,distributive
1778,7,move,tall,bare,3224,distributive
1778,8,move,big,bare,5841,distributive
1778,9,move,big,each,2608,distributive
1777,1,inspect,tall,each,5461,distributive
1777,2,inspect,big,bare,6050,distributive
1777,3,inspect,heavy,together,3704,collective
1777,4,inspect,heavy,bare,2370,distributive
1777,5,inspect,tall,bare,6338,distributive
1777,6,inspect,big,each,1849,distributive
1777,7,inspect,tall,together,2554,collective
1777,8,inspect,big,together,6963,collective
1777,9,inspect,heavy,each,2186,distributive
1776,1,move,big,together,9454,distributive
1776,2,move,heavy,bare,14906,distributive
1776,3,move,big,each,4817,distributive
1776,4,move,tall,together,2998,collective
1776,5,move,big,bare,2299,distributive
1776,6,move,heavy,together,2422,collective
1776,7,move,tall,each,3241,distributive
1776,8,move,tall,bare,2487,distributive
1776,9,move,heavy,each,2549,distributive
1775,1,inspect,big,bare,3635,distributive
1775,2,inspect,tall,together,2257,collective
1775,3,inspect,tall,bare,3902,distributive
1775,4,inspect,big,each,2080,distributive
1775,5,inspect,tall,each,2840,distributive
1775,6,inspect,big,together,2015,collective
1775,7,inspect,heavy,each,2729,distributive
1775,8,inspect,heavy,together,5916,collective
1775,9,inspect,heavy,bare,2022,distributive
1774,1,inspect,heavy,each,11082,distributive
1774,2,inspect,big,bare,7303,distributive
1774,3,inspect,tall,bare,1543,distributive
1774,4,inspect,heavy,bare,12386,collective
1774,5,inspect,heavy,together,7838,collective
1774,6,inspect,tall,each,3272,distributive
1774,7,inspect,big,each,2301,distributive
1774,8,inspect,big,together,2707,collective
1774,9,inspect,tall,together,9714,collective
1773,1,inspect,big,each,12261,distributive
1773,2,inspect,tall,each,3171,distributive
1773,3,inspect,heavy,together,3498,distributive
1773,4,inspect,big,bare,4295,distributive
1773,5,inspect,heavy,bare,2013,distributive
1773,6,inspect,tall,together,1231,distributive
1773,7,inspect,tall,bare,2783,distributive
1773,8,inspect,big,together,4609,collective
1773,9,inspect,heavy,each,2373,distributive
1772,1,move,big,bare,4997,distributive
1772,2,move,heavy,each,11764,collective
1772,3,move,big,each,3312,distributive
1772,4,move,tall,each,2087,distributive
1772,5,move,tall,bare,3520,collective
1772,6,move,heavy,bare,2512,collective
1772,7,move,heavy,together,2103,collective
1772,8,move,big,together,2198,collective
1772,9,move,tall,together,1467,collective
1770,1,inspect,tall,together,8492,collective
1770,2,inspect,heavy,each,4304,distributive
1770,3,inspect,tall,bare,2457,distributive
1770,4,inspect,tall,each,2465,distributive
1770,5,inspect,heavy,bare,6890,distributive
1770,6,inspect,big,each,4030,distributive
1770,7,inspect,big,together,3654,collective
1770,8,inspect,heavy,together,2482,collective
1770,9,inspect,big,bare,2184,distributive
1769,1,move,heavy,bare,6614,distributive
1769,2,move,tall,together,6627,collective
1769,3,move,big,each,6837,distributive
1769,4,move,tall,bare,17130,collective
1769,5,move,big,bare,10455,distributive
1769,6,move,tall,each,4156,distributive
1769,7,move,big,together,2253,collective
1769,8,move,heavy,together,3405,collective
1769,9,move,heavy,each,3950,distributive
1768,1,inspect,tall,together,11808,collective
1768,2,inspect,heavy,each,4951,distributive
1768,3,inspect,heavy,bare,3555,distributive
1768,4,inspect,big,bare,2385,distributive
1768,5,inspect,heavy,together,5975,collective
1768,6,inspect,big,together,7159,collective
1768,7,inspect,big,each,2194,distributive
1768,8,inspect,tall,bare,1725,distributive
1768,9,inspect,tall,each,2310,distributive
1767,1,move,big,bare,3607,distributive
1767,2,move,big,each,1471,collective
1767,3,move,heavy,each,3570,distributive
1767,4,move,big,together,2155,collective
1767,5,move,heavy,bare,3230,distributive
1767,6,move,tall,together,1430,collective
1767,7,move,heavy,together,3017,collective
1767,8,move,tall,each,3126,distributive
1767,9,move,tall,bare,2969,distributive
1766,1,inspect,big,bare,3000,distributive
1766,2,inspect,heavy,bare,2415,distributive
1766,3,inspect,big,each,3505,distributive
1766,4,inspect,tall,together,2599,collective
1766,5,inspect,tall,bare,5235,distributive
1766,6,inspect,heavy,together,2849,collective
1766,7,inspect,heavy,each,2298,distributive
1766,8,inspect,tall,each,2102,distributive
1766,9,inspect,big,together,2644,collective
1765,1,move,big,bare,17165,distributive
1765,2,move,tall,together,3242,collective
1765,3,move,tall,each,1904,distributive
1765,4,move,heavy,together,8290,collective
1765,5,move,big,together,4188,collective
1765,6,move,tall,bare,1661,distributive
1765,7,move,heavy,each,4101,distributive
1765,8,move,big,each,1914,distributive
1765,9,move,heavy,bare,3000,distributive
1764,1,move,tall,together,6115,collective
1764,2,move,heavy,each,5322,collective
1764,3,move,heavy,bare,4563,distributive
1764,4,move,big,bare,3081,distributive
1764,5,move,heavy,together,4282,distributive
1764,6,move,tall,each,4331,distributive
1764,7,move,tall,bare,1790,collective
1764,8,move,big,each,2896,distributive
1764,9,move,big,together,6291,collective
1763,1,move,tall,together,5011,collective
1763,2,move,tall,bare,1526,collective
1763,3,move,big,bare,1452,collective
1763,4,move,big,together,5404,distributive
1763,5,move,heavy,each,4931,distributive
1763,6,move,heavy,bare,3826,collective
1763,7,move,big,each,3164,distributive
1763,8,move,heavy,together,2637,collective
1763,9,move,tall,each,2131,distributive
1760,1,move,big,together,7762,distributive
1760,2,move,heavy,each,4131,distributive
1760,3,move,big,bare,5013,distributive
1760,4,move,heavy,together,7252,collective
1760,5,move,tall,each,2764,distributive
1760,6,move,heavy,bare,4611,distributive
1760,7,move,big,each,2355,distributive
1760,8,move,tall,bare,2282,distributive
1760,9,move,tall,together,2117,collective
1759,1,move,big,together,12390,distributive
1759,2,move,tall,together,3354,distributive
1759,3,move,big,each,3030,distributive
1759,4,move,heavy,bare,11867,collective
1759,5,move,big,bare,2773,distributive
1759,6,move,tall,each,3847,distributive
1759,7,move,tall,bare,2011,collective
1759,8,move,heavy,together,2400,collective
1759,9,move,heavy,each,2234,distributive
1757,1,inspect,tall,each,11809,distributive
1757,2,inspect,tall,together,3097,collective
1757,3,inspect,heavy,bare,6940,distributive
1757,4,inspect,big,bare,1906,distributive
1757,5,inspect,tall,bare,2184,distributive
1757,6,inspect,big,each,2084,distributive
1757,7,inspect,big,together,2347,collective
1757,8,inspect,heavy,each,2446,distributive
1757,9,inspect,heavy,together,3072,collective
1755,1,inspect,tall,together,13550,collective
1755,2,inspect,tall,bare,6048,distributive
1755,3,inspect,big,each,5287,distributive
1755,4,inspect,big,together,3454,collective
1755,5,inspect,tall,each,3421,distributive
1755,6,inspect,heavy,together,6713,collective
1755,7,inspect,heavy,bare,3500,distributive
1755,8,inspect,big,bare,3292,distributive
1755,9,inspect,heavy,each,3445,distributive
1754,1,inspect,tall,together,4447,collective
1754,2,inspect,tall,bare,5113,distributive
1754,3,inspect,tall,each,6576,distributive
1754,4,inspect,heavy,each,2991,distributive
1754,5,inspect,heavy,together,3127,collective
1754,6,inspect,big,bare,2545,distributive
1754,7,inspect,big,each,3976,distributive
1754,8,inspect,big,together,2342,collective
1754,9,inspect,heavy,bare,5471,distributive
1746,1,inspect,heavy,together,8655,collective
1746,2,inspect,big,each,5016,distributive
1746,3,inspect,tall,bare,2738,distributive
1746,4,inspect,tall,each,1896,distributive
1746,5,inspect,heavy,bare,3963,collective
1746,6,inspect,big,together,3910,collective
1746,7,inspect,tall,together,3570,collective
1746,8,inspect,heavy,each,1820,distributive
1746,9,inspect,big,bare,11313,distributive
1745,1,move,big,bare,28467,distributive
1745,2,move,tall,bare,14553,distributive
1745,3,move,heavy,bare,8033,distributive
1745,4,move,big,each,625652,distributive
1745,5,move,tall,together,3353,collective
1745,6,move,big,together,9317,collective
1745,7,move,heavy,each,3926,distributive
1745,8,move,tall,each,10910,distributive
1745,9,move,heavy,together,7874,collective
1744,1,inspect,tall,together,7739,collective
1744,2,inspect,heavy,together,13407,distributive
1744,3,inspect,big,together,4549,collective
1744,4,inspect,heavy,each,25462,distributive
1744,5,inspect,big,each,3764,distributive
1744,6,inspect,heavy,bare,3232,collective
1744,7,inspect,tall,each,4625,distributive
1744,8,inspect,tall,bare,2053,collective
1744,9,inspect,big,bare,2389,collective
1743,1,inspect,big,bare,11755,distributive
1743,2,inspect,tall,each,15965,distributive
1743,3,inspect,tall,together,9136,collective
1743,4,inspect,tall,bare,7936,distributive
1743,5,inspect,heavy,bare,27662,collective
1743,6,inspect,big,together,6640,collective
1743,7,inspect,big,each,6190,distributive
1743,8,inspect,heavy,each,8147,collective
1743,9,inspect,heavy,together,8902,collective
1739,1,inspect,tall,each,6042,distributive
1739,2,inspect,tall,bare,2692,collective
1739,3,inspect,big,bare,1924,collective
1739,4,inspect,heavy,together,3232,distributive
1739,5,inspect,heavy,each,4055,distributive
1739,6,inspect,tall,together,4342,collective
1739,7,inspect,big,together,3890,collective
1739,8,inspect,heavy,bare,3887,collective
1739,9,inspect,big,each,2193,distributive
1736,1,inspect,heavy,together,27392,distributive
1736,2,inspect,tall,each,26444,distributive
1736,3,inspect,big,each,9308,distributive
1736,4,inspect,big,bare,9122,distributive
1736,5,inspect,tall,bare,8973,distributive
1736,6,inspect,big,together,7336,collective
1736,7,inspect,tall,together,4467,collective
1736,8,inspect,heavy,bare,5322,distributive
1736,9,inspect,heavy,each,3626,distributive
1735,1,inspect,big,bare,4213,distributive
1735,2,inspect,big,each,4067,distributive
1735,3,inspect,tall,together,3134,collective
1735,4,inspect,heavy,bare,5425,distributive
1735,5,inspect,big,together,10888,distributive
1735,6,inspect,tall,bare,5041,collective
1735,7,inspect,heavy,each,2947,distributive
1735,8,inspect,tall,each,3298,distributive
1735,9,inspect,heavy,together,9173,collective
1731,1,move,heavy,bare,3007,distributive
1731,2,move,heavy,each,2126,distributive
1731,3,move,big,bare,1856,distributive
1731,4,move,tall,together,2555,collective
1731,5,move,tall,bare,1841,distributive
1731,6,move,heavy,together,1572,collective
1731,7,move,big,together,2249,collective
1731,8,move,big,each,2299,distributive
1731,9,move,tall,each,1338,distributive
1729,1,move,heavy,each,4138,collective
1729,2,move,big,each,2224,collective
1729,3,move,big,together,4053,collective
1729,4,move,tall,together,3133,collective
1729,5,move,tall,each,3580,distributive
1729,6,move,heavy,bare,2620,distributive
1729,7,move,tall,bare,3342,distributive
1729,8,move,heavy,together,6778,collective
1729,9,move,big,bare,2580,distributive
1728,1,inspect,tall,bare,3591,distributive
1728,2,inspect,big,bare,2851,distributive
1728,3,inspect,heavy,together,2414,collective
1728,4,inspect,heavy,each,8224,collective
1728,5,inspect,big,each,4012,distributive
1728,6,inspect,tall,together,2849,collective
1728,7,inspect,big,together,1610,collective
1728,8,inspect,heavy,bare,5149,distributive
1728,9,inspect,tall,each,2373,collective
1727,1,inspect,tall,each,6674,distributive
1727,2,inspect,big,together,6918,collective
1727,3,inspect,heavy,together,8479,collective
1727,4,inspect,tall,bare,3823,distributive
1727,5,inspect,heavy,bare,9867,distributive
1727,6,inspect,big,each,3620,distributive
1727,7,inspect,big,bare,7757,distributive
1727,8,inspect,heavy,each,3429,distributive
1727,9,inspect,tall,together,5409,collective
1726,1,inspect,tall,together,17672,distributive
1726,2,inspect,heavy,each,8032,distributive
1726,3,inspect,tall,bare,9125,distributive
1726,4,inspect,big,bare,7021,distributive
1726,5,inspect,heavy,together,4669,distributive
1726,6,inspect,tall,each,36783,distributive
1726,7,inspect,heavy,bare,4488,distributive
1726,8,inspect,big,each,1154,distributive
1726,9,inspect,big,together,4064,distributive
1725,1,move,tall,together,7593,collective
1725,2,move,big,together,6682,distributive
1725,3,move,tall,each,1923,distributive
1725,4,move,big,each,2950,distributive
1725,5,move,heavy,bare,4082,distributive
1725,6,move,big,bare,2216,distributive
1725,7,move,tall,bare,1407,distributive
1725,8,move,heavy,each,2387,distributive
1725,9,move,heavy,together,4677,collective
1724,1,inspect,big,together,9029,collective
1724,2,inspect,heavy,together,23350,collective
1724,3,inspect,tall,each,3985,distributive
1724,4,inspect,tall,together,2160,collective
1724,5,inspect,heavy,bare,3294,distributive
1724,6,inspect,big,each,2818,distributive
1724,7,inspect,tall,bare,6785,distributive
1724,8,inspect,heavy,each,2504,distributive
1724,9,inspect,big,bare,3210,distributive
1722,1,move,big,together,9573,distributive
1722,2,move,tall,each,5516,distributive
1722,3,move,big,bare,4703,distributive
1722,4,move,heavy,bare,5193,collective
1722,5,move,big,each,3271,distributive
1722,6,move,heavy,each,5509,distributive
1722,7,move,tall,bare,3597,collective
1722,8,move,heavy,together,4442,collective
1722,9,move,tall,together,2685,collective
1719,1,move,big,together,13142,distributive
1719,2,move,heavy,bare,11126,distributive
1719,3,move,big,bare,5515,distributive
1719,4,move,tall,together,10098,collective
1719,5,move,tall,bare,3281,distributive
1719,6,move,heavy,together,12383,collective
1719,7,move,big,each,2395,distributive
1719,8,move,heavy,each,2494,distributive
1719,9,move,tall,each,1517,distributive
1718,1,inspect,heavy,bare,8572,distributive
1718,2,inspect,big,each,3585,distributive
1718,3,inspect,heavy,each,7874,distributive
1718,4,inspect,tall,bare,1868,distributive
1718,5,inspect,tall,together,2634,collective
1718,6,inspect,big,bare,3807,distributive
1718,7,inspect,heavy,together,3029,collective
1718,8,inspect,big,together,2530,collective
1718,9,inspect,tall,each,2094,distributive
1715,1,move,tall,together,37706,collective
1715,2,move,heavy,together,9849,distributive
1715,3,move,heavy,bare,17602,distributive
1715,4,move,big,together,618,collective
1715,5,move,tall,bare,12005,distributive
1715,6,move,big,each,3980,distributive
1715,7,move,heavy,each,4437,collective
1715,8,move,tall,each,3092,distributive
1715,9,move,big,bare,3201,distributive
1713,1,move,heavy,each,5041,distributive
1713,2,move,heavy,together,3593,collective
1713,3,move,heavy,bare,3622,distributive
1713,4,move,big,together,3607,collective
1713,5,move,tall,each,2952,distributive
1713,6,move,tall,bare,1914,distributive
1713,7,move,big,each,2864,distributive
1713,8,move,big,bare,2855,distributive
1713,9,move,tall,together,2586,distributive
1711,1,move,heavy,together,27480,collective
1711,2,move,big,bare,6560,distributive
1711,3,move,heavy,each,6428,distributive
1711,4,move,tall,bare,8030,distributive
1711,5,move,tall,each,2526,distributive
1711,6,move,heavy,bare,6296,distributive
1711,7,move,big,each,6261,distributive
1711,8,move,tall,together,2560,collective
1711,9,move,big,together,3406,collective
1710,1,inspect,heavy,together,14658,collective
1710,2,inspect,heavy,bare,2840,distributive
1710,3,inspect,tall,each,3753,distributive
1710,4,inspect,big,each,17247,distributive
1710,5,inspect,tall,together,2674,collective
1710,6,inspect,big,bare,3448,distributive
1710,7,inspect,tall,bare,7123,collective
1710,8,inspect,big,together,7386,collective
1710,9,inspect,heavy,each,2257,distributive
1709,1,inspect,big,bare,5952,distributive
1709,2,inspect,tall,together,3274,distributive
1709,3,inspect,heavy,bare,17804,distributive
1709,4,inspect,big,together,6609,collective
1709,5,inspect,big,each,3584,distributive
1709,6,inspect,heavy,together,49224,collective
1709,7,inspect,tall,bare,5230,distributive
1709,8,inspect,tall,each,2212,distributive
1709,9,inspect,heavy,each,9532,collective
1707,1,inspect,heavy,together,9516,collective
1707,2,inspect,tall,together,7591,collective
1707,3,inspect,big,together,13988,distributive
1707,4,inspect,big,each,3242,distributive
1707,5,inspect,tall,each,3674,distributive
1707,6,inspect,tall,bare,5281,distributive
1707,7,inspect,heavy,each,4483,distributive
1707,8,inspect,heavy,bare,4128,collective
1707,9,inspect,big,bare,4856,distributive
1706,1,inspect,big,together,12893,collective
1706,2,inspect,heavy,bare,4300,distributive
1706,3,inspect,big,each,2779,distributive
1706,4,inspect,heavy,each,8497,distributive
1706,5,inspect,tall,bare,3065,distributive
1706,6,inspect,tall,together,1781,distributive
1706,7,inspect,big,bare,2467,distributive
1706,8,inspect,tall,each,2104,distributive
1706,9,inspect,heavy,together,2074,distributive
1704,1,move,tall,each,7682,distributive
1704,2,move,tall,together,2356,collective
1704,3,move,heavy,together,5188,collective
1704,4,move,heavy,bare,2173,distributive
1704,5,move,tall,bare,2597,distributive
1704,6,move,heavy,each,2834,distributive
1704,7,move,big,each,2354,distributive
1704,8,move,big,together,2379,collective
1704,9,move,big,bare,1929,distributive
1702,1,move,heavy,each,8434,collective
1702,2,move,big,bare,3187,distributive
1702,3,move,tall,each,2515,distributive
1702,4,move,heavy,together,7690,distributive
1702,5,move,tall,together,2906,collective
1702,6,move,big,each,2133,distributive
1702,7,move,tall,bare,3056,distributive
1702,8,move,heavy,bare,2837,collective
1702,9,move,big,together,3108,collective
1701,1,inspect,tall,bare,4457,distributive
1701,2,inspect,heavy,bare,10069,distributive
1701,3,inspect,tall,together,3171,collective
1701,4,inspect,heavy,together,4452,collective
1701,5,inspect,tall,each,4432,distributive
1701,6,inspect,big,together,2640,collective
1701,7,inspect,big,each,2059,distributive
1701,8,inspect,big,bare,2442,distributive
1701,9,inspect,heavy,each,3561,distributive
1700,1,move,heavy,together,6223,distributive
1700,2,move,big,bare,5533,distributive
1700,3,move,big,together,16419,distributive
1700,4,move,tall,each,1613,distributive
1700,5,move,heavy,bare,1607,distributive
1700,6,move,heavy,each,3713,distributive
1700,7,move,big,each,1903,distributive
1700,8,move,tall,bare,2970,distributive
1700,9,move,tall,together,3293,collective
1698,1,inspect,big,bare,7673,distributive
1698,2,inspect,heavy,each,6335,distributive
1698,3,inspect,big,together,2836,collective
1698,4,inspect,heavy,bare,9660,distributive
1698,5,inspect,heavy,together,4683,collective
1698,6,inspect,big,each,4452,distributive
1698,7,inspect,tall,together,4382,collective
1698,8,inspect,tall,bare,2233,distributive
1698,9,inspect,tall,each,2362,distributive
1697,1,move,big,each,6252,distributive
1697,2,move,heavy,together,30259,distributive
1697,3,move,big,together,62328,collective
1697,4,move,tall,together,3589,collective
1697,5,move,heavy,each,8068,distributive
1697,6,move,tall,bare,3142,distributive
1697,7,move,big,bare,2786,distributive
1697,8,move,heavy,bare,2560,distributive
1697,9,move,tall,each,4088,distributive
1696,1,move,heavy,together,16066,collective
1696,2,move,big,together,7000,distributive
1696,3,move,heavy,each,4752,collective
1696,4,move,big,each,1471,collective
1696,5,move,heavy,bare,1376,collective
1696,6,move,big,bare,1070,collective
1696,7,move,tall,bare,1455,collective
1696,8,move,tall,together,1891,collective
1696,9,move,tall,each,1690,collective
1695,1,inspect,big,together,33391,distributive
1695,2,inspect,big,bare,26236,distributive
1695,3,inspect,tall,each,19033,distributive
1695,4,inspect,big,each,3697,distributive
1695,5,inspect,heavy,bare,25421,collective
1695,6,inspect,tall,bare,2892,collective
1695,7,inspect,heavy,each,7269,distributive
1695,8,inspect,tall,together,3582,collective
1695,9,inspect,heavy,together,4514,collective
1693,1,inspect,tall,together,9172,collective
1693,2,inspect,heavy,each,5725,distributive
1693,3,inspect,tall,each,3316,distributive
1693,4,inspect,big,bare,3863,distributive
1693,5,inspect,big,together,3467,collective
1693,6,inspect,big,each,2758,distributive
1693,7,inspect,heavy,bare,4988,distributive
1693,8,inspect,heavy,together,9676,collective
1693,9,inspect,tall,bare,2746,distributive
1691,1,inspect,heavy,each,12313,distributive
1691,2,inspect,tall,each,3001,distributive
1691,3,inspect,big,each,4318,distributive
1691,4,inspect,heavy,bare,2042,distributive
1691,5,inspect,big,together,2982,collective
1691,6,inspect,tall,together,3259,collective
1691,7,inspect,heavy,together,2965,collective
1691,8,inspect,tall,bare,4439,distributive
1691,9,inspect,big,bare,1856,distributive
1689,1,move,tall,each,5374,distributive
1689,2,move,heavy,each,7163,distributive
1689,3,move,heavy,together,3632,collective
1689,4,move,big,together,2424,collective
1689,5,move,tall,together,2250,collective
1689,6,move,tall,bare,2162,distributive
1689,7,move,heavy,bare,2630,collective
1689,8,move,big,each,1778,distributive
1689,9,move,big,bare,2883,distributive
1688,1,move,tall,together,12927,collective
1688,2,move,big,each,9508,distributive
1688,3,move,tall,each,7120,distributive
1688,4,move,big,bare,5415,distributive
1688,5,move,heavy,together,6591,collective
1688,6,move,tall,bare,4600,distributive
1688,7,move,heavy,each,5776,distributive
1688,8,move,big,together,8712,collective
1688,9,move,heavy,bare,8184,distributive
1687,1,inspect,big,together,7981,collective
1687,2,inspect,tall,bare,3542,collective
1687,3,inspect,big,each,1979,distributive
1687,4,inspect,tall,together,6198,collective
1687,5,inspect,tall,each,3724,distributive
1687,6,inspect,heavy,bare,6123,distributive
1687,7,inspect,big,bare,2202,distributive
1687,8,inspect,heavy,together,7755,distributive
1687,9,inspect,heavy,each,2700,distributive
1686,1,move,tall,together,7780,collective
1686,2,move,heavy,bare,4362,distributive
1686,3,move,heavy,together,13882,collective
1686,4,move,big,together,3470,collective
1686,5,move,big,bare,2234,distributive
1686,6,move,heavy,each,4046,distributive
1686,7,move,big,each,3204,distributive
1686,8,move,tall,bare,20848,collective
1686,9,move,tall,each,1641,distributive
1685,1,inspect,big,together,10241,distributive
1685,2,inspect,heavy,each,16077,collective
1685,3,inspect,tall,each,3177,distributive
1685,4,inspect,heavy,bare,4009,distributive
1685,5,inspect,tall,bare,4234,collective
1685,6,inspect,big,bare,2757,distributive
1685,7,inspect,big,each,3530,distributive
1685,8,inspect,tall,together,5642,collective
1685,9,inspect,heavy,together,5669,collective
1683,1,move,tall,together,9484,collective
1683,2,move,heavy,each,2647,distributive
1683,3,move,big,bare,1508,distributive
1683,4,move,heavy,bare,1500,distributive
1683,5,move,big,each,2441,distributive
1683,6,move,tall,bare,2260,distributive
1683,7,move,big,together,2083,collective
1683,8,move,heavy,together,4965,collective
1683,9,move,tall,each,1850,distributive
1682,1,move,tall,bare,2641,distributive
1682,2,move,big,bare,5431,distributive
1682,3,move,tall,each,3084,distributive
1682,4,move,big,each,1880,distributive
1682,5,move,heavy,together,2168,collective
1682,6,move,tall,together,2040,collective
1682,7,move,big,together,2528,collective
1682,8,move,heavy,each,3423,distributive
1682,9,move,heavy,bare,4143,collective
1681,1,inspect,tall,each,38656,distributive
1681,2,inspect,heavy,together,49179,distributive
1681,3,inspect,tall,together,3718,collective
1681,4,inspect,heavy,each,4869,distributive
1681,5,inspect,heavy,bare,2457,distributive
1681,6,inspect,tall,bare,2095,distributive
1681,7,inspect,big,each,1809,distributive
1681,8,inspect,big,together,5197,collective
1681,9,inspect,big,bare,1447,distributive
